July 5, 2024   17:39:20
Amperometric i-t Curve
File: 7
Data Source:  Experiment
Instrument Model:  CHI760E
Header: 
Note: 

Init E (V) = 0.1
Sample Interval (s) = 0.03
Run Time (sec) = 4e+3
Quiet Time (sec) = 0
Sensitivity (A/V) = 1e-5

Results:

Channel 1:

Time/sec, Current/A

3.000e-2, 4.035e-6
6.000e-2, 4.115e-6
9.000e-2, 4.126e-6
1.200e-1, 4.160e-6
1.500e-1, 4.171e-6
1.800e-1, 4.188e-6
2.100e-1, 4.083e-6
2.400e-1, 3.926e-6
2.700e-1, 3.887e-6
3.000e-1, 3.915e-6
3.300e-1, 3.897e-6
3.600e-1, 3.930e-6
3.900e-1, 4.043e-6
4.200e-1, 4.055e-6
4.500e-1, 3.945e-6
4.800e-1, 3.856e-6
5.100e-1, 3.890e-6
5.400e-1, 4.021e-6
5.700e-1, 4.105e-6
6.000e-1, 4.069e-6
6.300e-1, 4.100e-6
6.600e-1, 4.246e-6
6.900e-1, 4.389e-6
7.200e-1, 4.637e-6
7.500e-1, 4.718e-6
7.800e-1, 4.752e-6
8.100e-1, 4.810e-6
8.400e-1, 4.797e-6
8.700e-1, 4.782e-6
9.000e-1, 4.695e-6
9.300e-1, 4.447e-6
9.600e-1, 4.377e-6
9.900e-1, 4.407e-6
1.020e+0, 4.284e-6
1.050e+0, 4.248e-6
1.080e+0, 4.296e-6
1.110e+0, 4.295e-6
1.140e+0, 4.301e-6
1.170e+0, 4.391e-6
1.200e+0, 4.481e-6
1.230e+0, 4.627e-6
1.260e+0, 4.745e-6
1.290e+0, 4.792e-6
1.320e+0, 4.822e-6
1.350e+0, 4.836e-6
1.380e+0, 4.880e-6
1.410e+0, 4.918e-6
1.440e+0, 4.922e-6
1.470e+0, 4.920e-6
1.500e+0, 4.951e-6
1.530e+0, 4.973e-6
1.560e+0, 4.953e-6
1.590e+0, 4.915e-6
1.620e+0, 4.865e-6
1.650e+0, 4.862e-6
1.680e+0, 4.855e-6
1.710e+0, 4.859e-6
1.740e+0, 4.882e-6
1.770e+0, 4.844e-6
1.800e+0, 4.693e-6
1.830e+0, 4.578e-6
1.860e+0, 4.529e-6
1.890e+0, 4.727e-6
1.920e+0, 4.859e-6
1.950e+0, 5.140e-6
1.980e+0, 5.423e-6
2.010e+0, 5.444e-6
2.040e+0, 5.402e-6
2.070e+0, 5.256e-6
2.100e+0, 5.138e-6
2.130e+0, 5.172e-6
2.160e+0, 4.941e-6
2.190e+0, 4.882e-6
2.220e+0, 4.826e-6
2.250e+0, 4.960e-6
2.280e+0, 5.046e-6
2.310e+0, 4.996e-6
2.340e+0, 4.907e-6
2.370e+0, 4.724e-6
2.400e+0, 4.724e-6
2.430e+0, 4.789e-6
2.460e+0, 4.814e-6
2.490e+0, 4.750e-6
2.520e+0, 4.759e-6
2.550e+0, 4.772e-6
2.580e+0, 4.800e-6
2.610e+0, 4.841e-6
2.640e+0, 4.926e-6
2.670e+0, 4.968e-6
2.700e+0, 4.978e-6
2.730e+0, 4.903e-6
2.760e+0, 4.849e-6
2.790e+0, 4.849e-6
2.820e+0, 4.795e-6
2.850e+0, 4.668e-6
2.880e+0, 4.689e-6
2.910e+0, 4.704e-6
2.940e+0, 4.685e-6
2.970e+0, 4.624e-6
3.000e+0, 4.569e-6
3.030e+0, 4.565e-6
3.060e+0, 4.527e-6
3.090e+0, 4.488e-6
3.120e+0, 4.425e-6
3.150e+0, 4.399e-6
3.180e+0, 4.379e-6
3.210e+0, 4.368e-6
3.240e+0, 4.383e-6
3.270e+0, 4.346e-6
3.300e+0, 4.365e-6
3.330e+0, 4.660e-6
3.360e+0, 4.960e-6
3.390e+0, 4.937e-6
3.420e+0, 4.946e-6
3.450e+0, 4.913e-6
3.480e+0, 4.896e-6
3.510e+0, 4.912e-6
3.540e+0, 4.834e-6
3.570e+0, 4.821e-6
3.600e+0, 4.804e-6
3.630e+0, 4.811e-6
3.660e+0, 4.770e-6
3.690e+0, 4.733e-6
3.720e+0, 4.748e-6
3.750e+0, 4.666e-6
3.780e+0, 4.562e-6
3.810e+0, 4.392e-6
3.840e+0, 4.517e-6
3.870e+0, 4.507e-6
3.900e+0, 4.417e-6
3.930e+0, 4.422e-6
3.960e+0, 4.499e-6
3.990e+0, 4.560e-6
4.020e+0, 4.797e-6
4.050e+0, 4.907e-6
4.080e+0, 4.985e-6
4.110e+0, 4.973e-6
4.140e+0, 5.039e-6
4.170e+0, 5.056e-6
4.200e+0, 5.054e-6
4.230e+0, 5.035e-6
4.260e+0, 4.981e-6
4.290e+0, 4.990e-6
4.320e+0, 4.996e-6
4.350e+0, 4.989e-6
4.380e+0, 4.910e-6
4.410e+0, 4.882e-6
4.440e+0, 4.802e-6
4.470e+0, 4.953e-6
4.500e+0, 5.207e-6
4.530e+0, 5.298e-6
4.560e+0, 5.392e-6
4.590e+0, 5.398e-6
4.620e+0, 5.434e-6
4.650e+0, 5.419e-6
4.680e+0, 5.126e-6
4.710e+0, 4.907e-6
4.740e+0, 5.068e-6
4.770e+0, 5.167e-6
4.800e+0, 5.076e-6
4.830e+0, 5.030e-6
4.860e+0, 5.127e-6
4.890e+0, 5.190e-6
4.920e+0, 5.201e-6
4.950e+0, 5.152e-6
4.980e+0, 5.199e-6
5.010e+0, 5.191e-6
5.040e+0, 5.182e-6
5.070e+0, 5.248e-6
5.100e+0, 5.274e-6
5.130e+0, 5.307e-6
5.160e+0, 5.326e-6
5.190e+0, 5.322e-6
5.220e+0, 5.323e-6
5.250e+0, 5.281e-6
5.280e+0, 5.245e-6
5.310e+0, 5.260e-6
5.340e+0, 5.291e-6
5.370e+0, 5.252e-6
5.400e+0, 5.252e-6
5.430e+0, 5.316e-6
5.460e+0, 5.378e-6
5.490e+0, 5.463e-6
5.520e+0, 5.518e-6
5.550e+0, 5.494e-6
5.580e+0, 5.460e-6
5.610e+0, 5.420e-6
5.640e+0, 5.388e-6
5.670e+0, 5.366e-6
5.700e+0, 5.377e-6
5.730e+0, 5.371e-6
5.760e+0, 5.327e-6
5.790e+0, 5.290e-6
5.820e+0, 5.257e-6
5.850e+0, 5.245e-6
5.880e+0, 5.248e-6
5.910e+0, 5.229e-6
5.940e+0, 5.177e-6
5.970e+0, 5.154e-6
6.000e+0, 5.175e-6
6.030e+0, 5.160e-6
6.060e+0, 5.126e-6
6.090e+0, 5.088e-6
6.120e+0, 5.166e-6
6.150e+0, 5.345e-6
6.180e+0, 5.447e-6
6.210e+0, 5.476e-6
6.240e+0, 5.535e-6
6.270e+0, 5.546e-6
6.300e+0, 5.591e-6
6.330e+0, 5.603e-6
6.360e+0, 5.513e-6
6.390e+0, 5.536e-6
6.420e+0, 5.516e-6
6.450e+0, 5.518e-6
6.480e+0, 5.491e-6
6.510e+0, 5.461e-6
6.540e+0, 5.362e-6
6.570e+0, 5.323e-6
6.600e+0, 5.299e-6
6.630e+0, 5.289e-6
6.660e+0, 5.162e-6
6.690e+0, 4.999e-6
6.720e+0, 4.971e-6
6.750e+0, 4.851e-6
6.780e+0, 4.889e-6
6.810e+0, 5.017e-6
6.840e+0, 5.374e-6
6.870e+0, 5.506e-6
6.900e+0, 5.531e-6
6.930e+0, 5.495e-6
6.960e+0, 5.510e-6
6.990e+0, 5.479e-6
7.020e+0, 5.433e-6
7.050e+0, 5.391e-6
7.080e+0, 5.420e-6
7.110e+0, 5.412e-6
7.140e+0, 5.412e-6
7.170e+0, 5.395e-6
7.200e+0, 5.359e-6
7.230e+0, 5.328e-6
7.260e+0, 5.314e-6
7.290e+0, 5.251e-6
7.320e+0, 5.228e-6
7.350e+0, 5.196e-6
7.380e+0, 5.177e-6
7.410e+0, 5.162e-6
7.440e+0, 5.093e-6
7.470e+0, 5.113e-6
7.500e+0, 5.237e-6
7.530e+0, 5.426e-6
7.560e+0, 5.467e-6
7.590e+0, 5.447e-6
7.620e+0, 5.453e-6
7.650e+0, 5.479e-6
7.680e+0, 5.482e-6
7.710e+0, 5.413e-6
7.740e+0, 5.414e-6
7.770e+0, 5.447e-6
7.800e+0, 5.444e-6
7.830e+0, 5.410e-6
7.860e+0, 5.345e-6
7.890e+0, 5.321e-6
7.920e+0, 5.323e-6
7.950e+0, 5.332e-6
7.980e+0, 5.312e-6
8.010e+0, 5.294e-6
8.040e+0, 5.266e-6
8.070e+0, 5.246e-6
8.100e+0, 5.224e-6
8.130e+0, 5.048e-6
8.160e+0, 5.057e-6
8.190e+0, 5.307e-6
8.220e+0, 5.509e-6
8.250e+0, 5.559e-6
8.280e+0, 5.577e-6
8.310e+0, 5.588e-6
8.340e+0, 5.554e-6
8.370e+0, 5.530e-6
8.400e+0, 5.391e-6
8.430e+0, 5.360e-6
8.460e+0, 5.362e-6
8.490e+0, 5.378e-6
8.520e+0, 5.351e-6
8.550e+0, 5.352e-6
8.580e+0, 5.332e-6
8.610e+0, 5.307e-6
8.640e+0, 5.252e-6
8.670e+0, 5.246e-6
8.700e+0, 5.225e-6
8.730e+0, 5.135e-6
8.760e+0, 5.118e-6
8.790e+0, 5.136e-6
8.820e+0, 4.960e-6
8.850e+0, 5.076e-6
8.880e+0, 5.357e-6
8.910e+0, 5.543e-6
8.940e+0, 5.498e-6
8.970e+0, 5.502e-6
9.000e+0, 5.500e-6
9.030e+0, 5.502e-6
9.060e+0, 5.494e-6
9.090e+0, 5.407e-6
9.120e+0, 5.456e-6
9.150e+0, 5.423e-6
9.180e+0, 5.393e-6
9.210e+0, 5.384e-6
9.240e+0, 5.322e-6
9.270e+0, 5.332e-6
9.300e+0, 5.320e-6
9.330e+0, 5.259e-6
9.360e+0, 5.219e-6
9.390e+0, 5.219e-6
9.420e+0, 5.207e-6
9.450e+0, 5.169e-6
9.480e+0, 5.159e-6
9.510e+0, 5.032e-6
9.540e+0, 5.121e-6
9.570e+0, 5.326e-6
9.600e+0, 5.532e-6
9.630e+0, 5.512e-6
9.660e+0, 5.505e-6
9.690e+0, 5.520e-6
9.720e+0, 5.533e-6
9.750e+0, 5.532e-6
9.780e+0, 5.441e-6
9.810e+0, 5.504e-6
9.840e+0, 5.502e-6
9.870e+0, 5.497e-6
9.900e+0, 5.492e-6
9.930e+0, 5.445e-6
9.960e+0, 5.411e-6
9.990e+0, 5.384e-6
1.002e+1, 5.366e-6
1.005e+1, 5.371e-6
1.008e+1, 5.356e-6
1.011e+1, 5.359e-6
1.014e+1, 5.344e-6
1.017e+1, 5.334e-6
1.020e+1, 5.279e-6
1.023e+1, 5.295e-6
1.026e+1, 5.470e-6
1.029e+1, 5.560e-6
1.032e+1, 5.559e-6
1.035e+1, 5.501e-6
1.038e+1, 5.509e-6
1.041e+1, 5.507e-6
1.044e+1, 5.510e-6
1.047e+1, 5.516e-6
1.050e+1, 5.514e-6
1.053e+1, 5.516e-6
1.056e+1, 5.498e-6
1.059e+1, 5.501e-6
1.062e+1, 5.493e-6
1.065e+1, 5.478e-6
1.068e+1, 5.455e-6
1.071e+1, 5.445e-6
1.074e+1, 5.425e-6
1.077e+1, 5.425e-6
1.080e+1, 5.381e-6
1.083e+1, 5.379e-6
1.086e+1, 5.387e-6
1.089e+1, 5.396e-6
1.092e+1, 5.453e-6
1.095e+1, 5.528e-6
1.098e+1, 5.591e-6
1.101e+1, 5.563e-6
1.104e+1, 5.563e-6
1.107e+1, 5.551e-6
1.110e+1, 5.573e-6
1.113e+1, 5.591e-6
1.116e+1, 5.585e-6
1.119e+1, 5.591e-6
1.122e+1, 5.588e-6
1.125e+1, 5.587e-6
1.128e+1, 5.574e-6
1.131e+1, 5.539e-6
1.134e+1, 5.553e-6
1.137e+1, 5.549e-6
1.140e+1, 5.485e-6
1.143e+1, 5.494e-6
1.146e+1, 5.503e-6
1.149e+1, 5.516e-6
1.152e+1, 5.518e-6
1.155e+1, 5.510e-6
1.158e+1, 5.462e-6
1.161e+1, 5.477e-6
1.164e+1, 5.524e-6
1.167e+1, 5.629e-6
1.170e+1, 5.631e-6
1.173e+1, 5.637e-6
1.176e+1, 5.654e-6
1.179e+1, 5.626e-6
1.182e+1, 5.635e-6
1.185e+1, 5.635e-6
1.188e+1, 5.637e-6
1.191e+1, 5.642e-6
1.194e+1, 5.619e-6
1.197e+1, 5.624e-6
1.200e+1, 5.611e-6
1.203e+1, 5.599e-6
1.206e+1, 5.564e-6
1.209e+1, 5.549e-6
1.212e+1, 5.531e-6
1.215e+1, 5.492e-6
1.218e+1, 5.464e-6
1.221e+1, 5.453e-6
1.224e+1, 5.470e-6
1.227e+1, 5.457e-6
1.230e+1, 5.432e-6
1.233e+1, 5.334e-6
1.236e+1, 5.345e-6
1.239e+1, 5.560e-6
1.242e+1, 5.643e-6
1.245e+1, 5.602e-6
1.248e+1, 5.584e-6
1.251e+1, 5.577e-6
1.254e+1, 5.579e-6
1.257e+1, 5.578e-6
1.260e+1, 5.582e-6
1.263e+1, 5.612e-6
1.266e+1, 5.610e-6
1.269e+1, 5.579e-6
1.272e+1, 5.560e-6
1.275e+1, 5.540e-6
1.278e+1, 5.460e-6
1.281e+1, 5.420e-6
1.284e+1, 5.402e-6
1.287e+1, 5.361e-6
1.290e+1, 5.324e-6
1.293e+1, 5.287e-6
1.296e+1, 5.280e-6
1.299e+1, 5.301e-6
1.302e+1, 5.296e-6
1.305e+1, 5.186e-6
1.308e+1, 5.257e-6
1.311e+1, 5.488e-6
1.314e+1, 5.603e-6
1.317e+1, 5.553e-6
1.320e+1, 5.533e-6
1.323e+1, 5.526e-6
1.326e+1, 5.519e-6
1.329e+1, 5.524e-6
1.332e+1, 5.518e-6
1.335e+1, 5.536e-6
1.338e+1, 5.535e-6
1.341e+1, 5.512e-6
1.344e+1, 5.507e-6
1.347e+1, 5.479e-6
1.350e+1, 5.464e-6
1.353e+1, 5.470e-6
1.356e+1, 5.490e-6
1.359e+1, 5.468e-6
1.362e+1, 5.440e-6
1.365e+1, 5.410e-6
1.368e+1, 5.411e-6
1.371e+1, 5.374e-6
1.374e+1, 5.373e-6
1.377e+1, 5.331e-6
1.380e+1, 5.386e-6
1.383e+1, 5.584e-6
1.386e+1, 5.570e-6
1.389e+1, 5.523e-6
1.392e+1, 5.513e-6
1.395e+1, 5.521e-6
1.398e+1, 5.528e-6
1.401e+1, 5.527e-6
1.404e+1, 5.514e-6
1.407e+1, 5.534e-6
1.410e+1, 5.535e-6
1.413e+1, 5.516e-6
1.416e+1, 5.493e-6
1.419e+1, 5.479e-6
1.422e+1, 5.484e-6
1.425e+1, 5.469e-6
1.428e+1, 5.452e-6
1.431e+1, 5.464e-6
1.434e+1, 5.467e-6
1.437e+1, 5.481e-6
1.440e+1, 5.432e-6
1.443e+1, 5.421e-6
1.446e+1, 5.364e-6
1.449e+1, 5.303e-6
1.452e+1, 5.358e-6
1.455e+1, 5.613e-6
1.458e+1, 5.676e-6
1.461e+1, 5.611e-6
1.464e+1, 5.611e-6
1.467e+1, 5.617e-6
1.470e+1, 5.620e-6
1.473e+1, 5.620e-6
1.476e+1, 5.608e-6
1.479e+1, 5.612e-6
1.482e+1, 5.618e-6
1.485e+1, 5.625e-6
1.488e+1, 5.613e-6
1.491e+1, 5.599e-6
1.494e+1, 5.571e-6
1.497e+1, 5.518e-6
1.500e+1, 5.457e-6
1.503e+1, 5.451e-6
1.506e+1, 5.433e-6
1.509e+1, 5.410e-6
1.512e+1, 5.400e-6
1.515e+1, 5.392e-6
1.518e+1, 5.389e-6
1.521e+1, 5.327e-6
1.524e+1, 5.270e-6
1.527e+1, 5.315e-6
1.530e+1, 5.630e-6
1.533e+1, 5.682e-6
1.536e+1, 5.618e-6
1.539e+1, 5.599e-6
1.542e+1, 5.601e-6
1.545e+1, 5.610e-6
1.548e+1, 5.607e-6
1.551e+1, 5.573e-6
1.554e+1, 5.597e-6
1.557e+1, 5.604e-6
1.560e+1, 5.591e-6
1.563e+1, 5.572e-6
1.566e+1, 5.510e-6
1.569e+1, 5.397e-6
1.572e+1, 5.365e-6
1.575e+1, 5.380e-6
1.578e+1, 5.372e-6
1.581e+1, 5.350e-6
1.584e+1, 5.305e-6
1.587e+1, 5.296e-6
1.590e+1, 5.287e-6
1.593e+1, 5.267e-6
1.596e+1, 5.211e-6
1.599e+1, 5.124e-6
1.602e+1, 5.209e-6
1.605e+1, 5.497e-6
1.608e+1, 5.534e-6
1.611e+1, 5.568e-6
1.614e+1, 5.604e-6
1.617e+1, 5.604e-6
1.620e+1, 5.599e-6
1.623e+1, 5.616e-6
1.626e+1, 5.588e-6
1.629e+1, 5.611e-6
1.632e+1, 5.645e-6
1.635e+1, 5.612e-6
1.638e+1, 5.568e-6
1.641e+1, 5.541e-6
1.644e+1, 5.478e-6
1.647e+1, 5.420e-6
1.650e+1, 5.432e-6
1.653e+1, 5.438e-6
1.656e+1, 5.436e-6
1.659e+1, 5.451e-6
1.662e+1, 5.417e-6
1.665e+1, 5.367e-6
1.668e+1, 5.333e-6
1.671e+1, 5.326e-6
1.674e+1, 5.182e-6
1.677e+1, 5.213e-6
1.680e+1, 5.382e-6
1.683e+1, 5.602e-6
1.686e+1, 5.610e-6
1.689e+1, 5.578e-6
1.692e+1, 5.573e-6
1.695e+1, 5.558e-6
1.698e+1, 5.567e-6
1.701e+1, 5.544e-6
1.704e+1, 5.533e-6
1.707e+1, 5.551e-6
1.710e+1, 5.553e-6
1.713e+1, 5.518e-6
1.716e+1, 5.509e-6
1.719e+1, 5.535e-6
1.722e+1, 5.479e-6
1.725e+1, 5.416e-6
1.728e+1, 5.429e-6
1.731e+1, 5.410e-6
1.734e+1, 5.365e-6
1.737e+1, 5.357e-6
1.740e+1, 5.397e-6
1.743e+1, 5.410e-6
1.746e+1, 5.419e-6
1.749e+1, 5.388e-6
1.752e+1, 5.412e-6
1.755e+1, 5.529e-6
1.758e+1, 5.710e-6
1.761e+1, 5.658e-6
1.764e+1, 5.635e-6
1.767e+1, 5.641e-6
1.770e+1, 5.649e-6
1.773e+1, 5.657e-6
1.776e+1, 5.641e-6
1.779e+1, 5.632e-6
1.782e+1, 5.636e-6
1.785e+1, 5.599e-6
1.788e+1, 5.599e-6
1.791e+1, 5.591e-6
1.794e+1, 5.483e-6
1.797e+1, 5.478e-6
1.800e+1, 5.489e-6
1.803e+1, 5.445e-6
1.806e+1, 5.401e-6
1.809e+1, 5.396e-6
1.812e+1, 5.386e-6
1.815e+1, 5.335e-6
1.818e+1, 5.309e-6
1.821e+1, 5.304e-6
1.824e+1, 5.259e-6
1.827e+1, 5.193e-6
1.830e+1, 5.128e-6
1.833e+1, 5.126e-6
1.836e+1, 5.466e-6
1.839e+1, 5.599e-6
1.842e+1, 5.614e-6
1.845e+1, 5.612e-6
1.848e+1, 5.603e-6
1.851e+1, 5.597e-6
1.854e+1, 5.594e-6
1.857e+1, 5.574e-6
1.860e+1, 5.587e-6
1.863e+1, 5.597e-6
1.866e+1, 5.579e-6
1.869e+1, 5.556e-6
1.872e+1, 5.493e-6
1.875e+1, 5.482e-6
1.878e+1, 5.480e-6
1.881e+1, 5.465e-6
1.884e+1, 5.484e-6
1.887e+1, 5.462e-6
1.890e+1, 5.443e-6
1.893e+1, 5.415e-6
1.896e+1, 5.407e-6
1.899e+1, 5.391e-6
1.902e+1, 5.371e-6
1.905e+1, 5.334e-6
1.908e+1, 5.186e-6
1.911e+1, 5.202e-6
1.914e+1, 5.560e-6
1.917e+1, 5.684e-6
1.920e+1, 5.681e-6
1.923e+1, 5.677e-6
1.926e+1, 5.666e-6
1.929e+1, 5.608e-6
1.932e+1, 5.622e-6
1.935e+1, 5.579e-6
1.938e+1, 5.579e-6
1.941e+1, 5.600e-6
1.944e+1, 5.575e-6
1.947e+1, 5.589e-6
1.950e+1, 5.563e-6
1.953e+1, 5.524e-6
1.956e+1, 5.499e-6
1.959e+1, 5.437e-6
1.962e+1, 5.372e-6
1.965e+1, 5.351e-6
1.968e+1, 5.350e-6
1.971e+1, 5.359e-6
1.974e+1, 5.351e-6
1.977e+1, 5.358e-6
1.980e+1, 5.355e-6
1.983e+1, 5.254e-6
1.986e+1, 5.104e-6
1.989e+1, 5.145e-6
1.992e+1, 5.487e-6
1.995e+1, 5.648e-6
1.998e+1, 5.649e-6
2.001e+1, 5.615e-6
2.004e+1, 5.621e-6
2.007e+1, 5.630e-6
2.010e+1, 5.631e-6
2.013e+1, 5.562e-6
2.016e+1, 5.596e-6
2.019e+1, 5.608e-6
2.022e+1, 5.548e-6
2.025e+1, 5.532e-6
2.028e+1, 5.500e-6
2.031e+1, 5.491e-6
2.034e+1, 5.508e-6
2.037e+1, 5.535e-6
2.040e+1, 5.509e-6
2.043e+1, 5.511e-6
2.046e+1, 5.495e-6
2.049e+1, 5.481e-6
2.052e+1, 5.483e-6
2.055e+1, 5.475e-6
2.058e+1, 5.482e-6
2.061e+1, 5.450e-6
2.064e+1, 5.416e-6
2.067e+1, 5.499e-6
2.070e+1, 5.680e-6
2.073e+1, 5.725e-6
2.076e+1, 5.652e-6
2.079e+1, 5.640e-6
2.082e+1, 5.654e-6
2.085e+1, 5.650e-6
2.088e+1, 5.648e-6
2.091e+1, 5.633e-6
2.094e+1, 5.654e-6
2.097e+1, 5.654e-6
2.100e+1, 5.658e-6
2.103e+1, 5.653e-6
2.106e+1, 5.647e-6
2.109e+1, 5.640e-6
2.112e+1, 5.591e-6
2.115e+1, 5.615e-6
2.118e+1, 5.603e-6
2.121e+1, 5.565e-6
2.124e+1, 5.496e-6
2.127e+1, 5.494e-6
2.130e+1, 5.472e-6
2.133e+1, 5.454e-6
2.136e+1, 5.457e-6
2.139e+1, 5.286e-6
2.142e+1, 5.284e-6
2.145e+1, 5.494e-6
2.148e+1, 5.668e-6
2.151e+1, 5.689e-6
2.154e+1, 5.634e-6
2.157e+1, 5.643e-6
2.160e+1, 5.664e-6
2.163e+1, 5.665e-6
2.166e+1, 5.652e-6
2.169e+1, 5.678e-6
2.172e+1, 5.703e-6
2.175e+1, 5.701e-6
2.178e+1, 5.687e-6
2.181e+1, 5.669e-6
2.184e+1, 5.591e-6
2.187e+1, 5.600e-6
2.190e+1, 5.559e-6
2.193e+1, 5.533e-6
2.196e+1, 5.523e-6
2.199e+1, 5.496e-6
2.202e+1, 5.457e-6
2.205e+1, 5.468e-6
2.208e+1, 5.441e-6
2.211e+1, 5.404e-6
2.214e+1, 5.239e-6
2.217e+1, 5.247e-6
2.220e+1, 5.419e-6
2.223e+1, 5.651e-6
2.226e+1, 5.713e-6
2.229e+1, 5.685e-6
2.232e+1, 5.676e-6
2.235e+1, 5.686e-6
2.238e+1, 5.690e-6
2.241e+1, 5.691e-6
2.244e+1, 5.698e-6
2.247e+1, 5.710e-6
2.250e+1, 5.708e-6
2.253e+1, 5.700e-6
2.256e+1, 5.695e-6
2.259e+1, 5.655e-6
2.262e+1, 5.611e-6
2.265e+1, 5.577e-6
2.268e+1, 5.564e-6
2.271e+1, 5.535e-6
2.274e+1, 5.542e-6
2.277e+1, 5.494e-6
2.280e+1, 5.471e-6
2.283e+1, 5.430e-6
2.286e+1, 5.351e-6
2.289e+1, 5.291e-6
2.292e+1, 5.312e-6
2.295e+1, 5.605e-6
2.298e+1, 5.711e-6
2.301e+1, 5.679e-6
2.304e+1, 5.623e-6
2.307e+1, 5.639e-6
2.310e+1, 5.652e-6
2.313e+1, 5.647e-6
2.316e+1, 5.629e-6
2.319e+1, 5.652e-6
2.322e+1, 5.667e-6
2.325e+1, 5.667e-6
2.328e+1, 5.637e-6
2.331e+1, 5.538e-6
2.334e+1, 5.536e-6
2.337e+1, 5.501e-6
2.340e+1, 5.449e-6
2.343e+1, 5.455e-6
2.346e+1, 5.508e-6
2.349e+1, 5.530e-6
2.352e+1, 5.542e-6
2.355e+1, 5.550e-6
2.358e+1, 5.500e-6
2.361e+1, 5.517e-6
2.364e+1, 5.543e-6
2.367e+1, 5.721e-6
2.370e+1, 5.713e-6
2.373e+1, 5.661e-6
2.376e+1, 5.645e-6
2.379e+1, 5.647e-6
2.382e+1, 5.654e-6
2.385e+1, 5.644e-6
2.388e+1, 5.670e-6
2.391e+1, 5.685e-6
2.394e+1, 5.665e-6
2.397e+1, 5.681e-6
2.400e+1, 5.664e-6
2.403e+1, 5.623e-6
2.406e+1, 5.608e-6
2.409e+1, 5.599e-6
2.412e+1, 5.612e-6
2.415e+1, 5.599e-6
2.418e+1, 5.541e-6
2.421e+1, 5.528e-6
2.424e+1, 5.545e-6
2.427e+1, 5.574e-6
2.430e+1, 5.514e-6
2.433e+1, 5.483e-6
2.436e+1, 5.530e-6
2.439e+1, 5.677e-6
2.442e+1, 5.700e-6
2.445e+1, 5.666e-6
2.448e+1, 5.660e-6
2.451e+1, 5.671e-6
2.454e+1, 5.675e-6
2.457e+1, 5.675e-6
2.460e+1, 5.682e-6
2.463e+1, 5.698e-6
2.466e+1, 5.699e-6
2.469e+1, 5.693e-6
2.472e+1, 5.659e-6
2.475e+1, 5.632e-6
2.478e+1, 5.613e-6
2.481e+1, 5.579e-6
2.484e+1, 5.596e-6
2.487e+1, 5.622e-6
2.490e+1, 5.568e-6
2.493e+1, 5.549e-6
2.496e+1, 5.548e-6
2.499e+1, 5.557e-6
2.502e+1, 5.518e-6
2.505e+1, 5.478e-6
2.508e+1, 5.494e-6
2.511e+1, 5.688e-6
2.514e+1, 5.712e-6
2.517e+1, 5.687e-6
2.520e+1, 5.707e-6
2.523e+1, 5.724e-6
2.526e+1, 5.728e-6
2.529e+1, 5.732e-6
2.532e+1, 5.703e-6
2.535e+1, 5.717e-6
2.538e+1, 5.719e-6
2.541e+1, 5.694e-6
2.544e+1, 5.681e-6
2.547e+1, 5.691e-6
2.550e+1, 5.686e-6
2.553e+1, 5.678e-6
2.556e+1, 5.681e-6
2.559e+1, 5.676e-6
2.562e+1, 5.651e-6
2.565e+1, 5.632e-6
2.568e+1, 5.609e-6
2.571e+1, 5.608e-6
2.574e+1, 5.607e-6
2.577e+1, 5.552e-6
2.580e+1, 5.564e-6
2.583e+1, 5.660e-6
2.586e+1, 5.732e-6
2.589e+1, 5.781e-6
2.592e+1, 5.807e-6
2.595e+1, 5.809e-6
2.598e+1, 5.853e-6
2.601e+1, 5.855e-6
2.604e+1, 5.784e-6
2.607e+1, 5.783e-6
2.610e+1, 5.799e-6
2.613e+1, 5.788e-6
2.616e+1, 5.776e-6
2.619e+1, 5.753e-6
2.622e+1, 5.706e-6
2.625e+1, 5.705e-6
2.628e+1, 5.692e-6
2.631e+1, 5.692e-6
2.634e+1, 5.687e-6
2.637e+1, 5.677e-6
2.640e+1, 5.652e-6
2.643e+1, 5.638e-6
2.646e+1, 5.611e-6
2.649e+1, 5.608e-6
2.652e+1, 5.657e-6
2.655e+1, 5.735e-6
2.658e+1, 5.763e-6
2.661e+1, 5.816e-6
2.664e+1, 5.819e-6
2.667e+1, 5.819e-6
2.670e+1, 5.826e-6
2.673e+1, 5.812e-6
2.676e+1, 5.813e-6
2.679e+1, 5.828e-6
2.682e+1, 5.773e-6
2.685e+1, 5.772e-6
2.688e+1, 5.764e-6
2.691e+1, 5.757e-6
2.694e+1, 5.754e-6
2.697e+1, 5.750e-6
2.700e+1, 5.696e-6
2.703e+1, 5.697e-6
2.706e+1, 5.690e-6
2.709e+1, 5.696e-6
2.712e+1, 5.688e-6
2.715e+1, 5.687e-6
2.718e+1, 5.676e-6
2.721e+1, 5.683e-6
2.724e+1, 5.780e-6
2.727e+1, 5.948e-6
2.730e+1, 5.818e-6
2.733e+1, 5.803e-6
2.736e+1, 5.777e-6
2.739e+1, 5.781e-6
2.742e+1, 5.781e-6
2.745e+1, 5.778e-6
2.748e+1, 5.805e-6
2.751e+1, 5.815e-6
2.754e+1, 5.812e-6
2.757e+1, 5.804e-6
2.760e+1, 5.787e-6
2.763e+1, 5.775e-6
2.766e+1, 5.751e-6
2.769e+1, 5.742e-6
2.772e+1, 5.764e-6
2.775e+1, 5.757e-6
2.778e+1, 5.671e-6
2.781e+1, 5.672e-6
2.784e+1, 5.659e-6
2.787e+1, 5.673e-6
2.790e+1, 5.623e-6
2.793e+1, 5.612e-6
2.796e+1, 5.703e-6
2.799e+1, 5.881e-6
2.802e+1, 5.792e-6
2.805e+1, 5.748e-6
2.808e+1, 5.728e-6
2.811e+1, 5.727e-6
2.814e+1, 5.727e-6
2.817e+1, 5.745e-6
2.820e+1, 5.762e-6
2.823e+1, 5.764e-6
2.826e+1, 5.748e-6
2.829e+1, 5.697e-6
2.832e+1, 5.671e-6
2.835e+1, 5.623e-6
2.838e+1, 5.628e-6
2.841e+1, 5.638e-6
2.844e+1, 5.597e-6
2.847e+1, 5.552e-6
2.850e+1, 5.500e-6
2.853e+1, 5.480e-6
2.856e+1, 5.481e-6
2.859e+1, 5.477e-6
2.862e+1, 5.483e-6
2.865e+1, 5.474e-6
2.868e+1, 5.471e-6
2.871e+1, 5.689e-6
2.874e+1, 5.828e-6
2.877e+1, 5.826e-6
2.880e+1, 5.810e-6
2.883e+1, 5.760e-6
2.886e+1, 5.764e-6
2.889e+1, 5.760e-6
2.892e+1, 5.742e-6
2.895e+1, 5.742e-6
2.898e+1, 5.739e-6
2.901e+1, 5.729e-6
2.904e+1, 5.727e-6
2.907e+1, 5.712e-6
2.910e+1, 5.707e-6
2.913e+1, 5.670e-6
2.916e+1, 5.605e-6
2.919e+1, 5.616e-6
2.922e+1, 5.626e-6
2.925e+1, 5.600e-6
2.928e+1, 5.613e-6
2.931e+1, 5.614e-6
2.934e+1, 5.619e-6
2.937e+1, 5.509e-6
2.940e+1, 5.509e-6
2.943e+1, 5.697e-6
2.946e+1, 5.876e-6
2.949e+1, 5.917e-6
2.952e+1, 5.921e-6
2.955e+1, 5.912e-6
2.958e+1, 5.911e-6
2.961e+1, 5.916e-6
2.964e+1, 5.898e-6
2.967e+1, 5.918e-6
2.970e+1, 5.937e-6
2.973e+1, 5.934e-6
2.976e+1, 5.900e-6
2.979e+1, 5.821e-6
2.982e+1, 5.714e-6
2.985e+1, 5.729e-6
2.988e+1, 5.711e-6
2.991e+1, 5.717e-6
2.994e+1, 5.670e-6
2.997e+1, 5.652e-6
3.000e+1, 5.659e-6
3.003e+1, 5.618e-6
3.006e+1, 5.502e-6
3.009e+1, 5.510e-6
3.012e+1, 5.639e-6
3.015e+1, 5.880e-6
3.018e+1, 5.935e-6
3.021e+1, 5.851e-6
3.024e+1, 5.822e-6
3.027e+1, 5.810e-6
3.030e+1, 5.793e-6
3.033e+1, 5.755e-6
3.036e+1, 5.816e-6
3.039e+1, 5.813e-6
3.042e+1, 5.786e-6
3.045e+1, 5.778e-6
3.048e+1, 5.655e-6
3.051e+1, 5.628e-6
3.054e+1, 5.611e-6
3.057e+1, 5.593e-6
3.060e+1, 5.581e-6
3.063e+1, 5.574e-6
3.066e+1, 5.570e-6
3.069e+1, 5.572e-6
3.072e+1, 5.573e-6
3.075e+1, 5.581e-6
3.078e+1, 5.521e-6
3.081e+1, 5.499e-6
3.084e+1, 5.558e-6
3.087e+1, 5.752e-6
3.090e+1, 5.819e-6
3.093e+1, 5.716e-6
3.096e+1, 5.735e-6
3.099e+1, 5.774e-6
3.102e+1, 5.779e-6
3.105e+1, 5.729e-6
3.108e+1, 5.709e-6
3.111e+1, 5.713e-6
3.114e+1, 5.699e-6
3.117e+1, 5.693e-6
3.120e+1, 5.669e-6
3.123e+1, 5.613e-6
3.126e+1, 5.601e-6
3.129e+1, 5.578e-6
3.132e+1, 5.565e-6
3.135e+1, 5.555e-6
3.138e+1, 5.559e-6
3.141e+1, 5.547e-6
3.144e+1, 5.547e-6
3.147e+1, 5.541e-6
3.150e+1, 5.453e-6
3.153e+1, 5.394e-6
3.156e+1, 5.469e-6
3.159e+1, 5.624e-6
3.162e+1, 5.766e-6
3.165e+1, 5.778e-6
3.168e+1, 5.768e-6
3.171e+1, 5.774e-6
3.174e+1, 5.813e-6
3.177e+1, 5.764e-6
3.180e+1, 5.734e-6
3.183e+1, 5.761e-6
3.186e+1, 5.755e-6
3.189e+1, 5.752e-6
3.192e+1, 5.660e-6
3.195e+1, 5.629e-6
3.198e+1, 5.607e-6
3.201e+1, 5.588e-6
3.204e+1, 5.608e-6
3.207e+1, 5.600e-6
3.210e+1, 5.594e-6
3.213e+1, 5.564e-6
3.216e+1, 5.544e-6
3.219e+1, 5.536e-6
3.222e+1, 5.520e-6
3.225e+1, 5.478e-6
3.228e+1, 5.463e-6
3.231e+1, 5.522e-6
3.234e+1, 5.755e-6
3.237e+1, 5.803e-6
3.240e+1, 5.817e-6
3.243e+1, 5.833e-6
3.246e+1, 5.821e-6
3.249e+1, 5.815e-6
3.252e+1, 5.825e-6
3.255e+1, 5.793e-6
3.258e+1, 5.805e-6
3.261e+1, 5.793e-6
3.264e+1, 5.784e-6
3.267e+1, 5.712e-6
3.270e+1, 5.629e-6
3.273e+1, 5.644e-6
3.276e+1, 5.667e-6
3.279e+1, 5.719e-6
3.282e+1, 5.815e-6
3.285e+1, 5.854e-6
3.288e+1, 5.842e-6
3.291e+1, 5.774e-6
3.294e+1, 5.753e-6
3.297e+1, 5.687e-6
3.300e+1, 5.711e-6
3.303e+1, 5.765e-6
3.306e+1, 5.889e-6
3.309e+1, 5.837e-6
3.312e+1, 5.805e-6
3.315e+1, 5.819e-6
3.318e+1, 5.803e-6
3.321e+1, 5.793e-6
3.324e+1, 5.810e-6
3.327e+1, 5.896e-6
3.330e+1, 5.900e-6
3.333e+1, 5.829e-6
3.336e+1, 5.794e-6
3.339e+1, 5.787e-6
3.342e+1, 5.787e-6
3.345e+1, 5.776e-6
3.348e+1, 5.756e-6
3.351e+1, 5.739e-6
3.354e+1, 5.747e-6
3.357e+1, 5.743e-6
3.360e+1, 5.744e-6
3.363e+1, 5.743e-6
3.366e+1, 5.677e-6
3.369e+1, 5.643e-6
3.372e+1, 5.657e-6
3.375e+1, 5.893e-6
3.378e+1, 5.873e-6
3.381e+1, 5.714e-6
3.384e+1, 5.686e-6
3.387e+1, 5.690e-6
3.390e+1, 5.751e-6
3.393e+1, 5.828e-6
3.396e+1, 5.842e-6
3.399e+1, 5.836e-6
3.402e+1, 5.828e-6
3.405e+1, 5.822e-6
3.408e+1, 5.817e-6
3.411e+1, 5.757e-6
3.414e+1, 5.722e-6
3.417e+1, 5.715e-6
3.420e+1, 5.674e-6
3.423e+1, 5.683e-6
3.426e+1, 5.691e-6
3.429e+1, 5.635e-6
3.432e+1, 5.587e-6
3.435e+1, 5.605e-6
3.438e+1, 5.500e-6
3.441e+1, 5.513e-6
3.444e+1, 5.629e-6
3.447e+1, 5.781e-6
3.450e+1, 5.756e-6
3.453e+1, 5.738e-6
3.456e+1, 5.738e-6
3.459e+1, 5.750e-6
3.462e+1, 5.772e-6
3.465e+1, 5.771e-6
3.468e+1, 5.789e-6
3.471e+1, 5.776e-6
3.474e+1, 5.762e-6
3.477e+1, 5.762e-6
3.480e+1, 5.699e-6
3.483e+1, 5.651e-6
3.486e+1, 5.613e-6
3.489e+1, 5.654e-6
3.492e+1, 5.672e-6
3.495e+1, 5.619e-6
3.498e+1, 5.628e-6
3.501e+1, 5.602e-6
3.504e+1, 5.597e-6
3.507e+1, 5.601e-6
3.510e+1, 5.575e-6
3.513e+1, 5.585e-6
3.516e+1, 5.704e-6
3.519e+1, 5.814e-6
3.522e+1, 5.733e-6
3.525e+1, 5.684e-6
3.528e+1, 5.676e-6
3.531e+1, 5.675e-6
3.534e+1, 5.680e-6
3.537e+1, 5.656e-6
3.540e+1, 5.730e-6
3.543e+1, 5.751e-6
3.546e+1, 5.739e-6
3.549e+1, 5.704e-6
3.552e+1, 5.675e-6
3.555e+1, 5.664e-6
3.558e+1, 5.659e-6
3.561e+1, 5.705e-6
3.564e+1, 5.664e-6
3.567e+1, 5.641e-6
3.570e+1, 5.623e-6
3.573e+1, 5.585e-6
3.576e+1, 5.514e-6
3.579e+1, 5.488e-6
3.582e+1, 5.406e-6
3.585e+1, 5.449e-6
3.588e+1, 5.684e-6
3.591e+1, 5.845e-6
3.594e+1, 5.777e-6
3.597e+1, 5.767e-6
3.600e+1, 5.774e-6
3.603e+1, 5.780e-6
3.606e+1, 5.773e-6
3.609e+1, 5.651e-6
3.612e+1, 5.658e-6
3.615e+1, 5.645e-6
3.618e+1, 5.649e-6
3.621e+1, 5.669e-6
3.624e+1, 5.710e-6
3.627e+1, 5.716e-6
3.630e+1, 5.709e-6
3.633e+1, 5.699e-6
3.636e+1, 5.705e-6
3.639e+1, 5.731e-6
3.642e+1, 5.746e-6
3.645e+1, 5.764e-6
3.648e+1, 5.754e-6
3.651e+1, 5.722e-6
3.654e+1, 5.723e-6
3.657e+1, 5.831e-6
3.660e+1, 5.976e-6
3.663e+1, 5.941e-6
3.666e+1, 5.926e-6
3.669e+1, 5.921e-6
3.672e+1, 5.912e-6
3.675e+1, 5.904e-6
3.678e+1, 5.910e-6
3.681e+1, 5.894e-6
3.684e+1, 5.923e-6
3.687e+1, 5.922e-6
3.690e+1, 5.913e-6
3.693e+1, 5.888e-6
3.696e+1, 5.896e-6
3.699e+1, 5.947e-6
3.702e+1, 5.968e-6
3.705e+1, 5.992e-6
3.708e+1, 6.001e-6
3.711e+1, 5.996e-6
3.714e+1, 6.001e-6
3.717e+1, 6.026e-6
3.720e+1, 6.011e-6
3.723e+1, 5.967e-6
3.726e+1, 5.993e-6
3.729e+1, 6.067e-6
3.732e+1, 6.046e-6
3.735e+1, 5.979e-6
3.738e+1, 5.932e-6
3.741e+1, 5.947e-6
3.744e+1, 5.947e-6
3.747e+1, 5.941e-6
3.750e+1, 5.936e-6
3.753e+1, 5.978e-6
3.756e+1, 5.981e-6
3.759e+1, 5.983e-6
3.762e+1, 5.996e-6
3.765e+1, 5.977e-6
3.768e+1, 5.973e-6
3.771e+1, 5.935e-6
3.774e+1, 5.871e-6
3.777e+1, 5.691e-6
3.780e+1, 5.373e-6
3.783e+1, 5.229e-6
3.786e+1, 5.197e-6
3.789e+1, 5.029e-6
3.792e+1, 4.973e-6
3.795e+1, 4.940e-6
3.798e+1, 4.983e-6
3.801e+1, 5.200e-6
3.804e+1, 5.266e-6
3.807e+1, 5.260e-6
3.810e+1, 5.258e-6
3.813e+1, 5.273e-6
3.816e+1, 5.236e-6
3.819e+1, 5.181e-6
3.822e+1, 5.114e-6
3.825e+1, 4.985e-6
3.828e+1, 4.850e-6
3.831e+1, 4.651e-6
3.834e+1, 4.578e-6
3.837e+1, 4.519e-6
3.840e+1, 4.625e-6
3.843e+1, 4.856e-6
3.846e+1, 4.779e-6
3.849e+1, 4.623e-6
3.852e+1, 4.606e-6
3.855e+1, 4.583e-6
3.858e+1, 4.613e-6
3.861e+1, 4.695e-6
3.864e+1, 4.701e-6
3.867e+1, 4.709e-6
3.870e+1, 4.760e-6
3.873e+1, 4.709e-6
3.876e+1, 4.656e-6
3.879e+1, 4.464e-6
3.882e+1, 4.259e-6
3.885e+1, 4.124e-6
3.888e+1, 4.075e-6
3.891e+1, 3.931e-6
3.894e+1, 3.735e-6
3.897e+1, 3.735e-6
3.900e+1, 3.723e-6
3.903e+1, 3.827e-6
3.906e+1, 3.888e-6
3.909e+1, 3.934e-6
3.912e+1, 3.941e-6
3.915e+1, 4.026e-6
3.918e+1, 4.142e-6
3.921e+1, 4.231e-6
3.924e+1, 4.443e-6
3.927e+1, 4.639e-6
3.930e+1, 4.755e-6
3.933e+1, 4.781e-6
3.936e+1, 4.869e-6
3.939e+1, 4.874e-6
3.942e+1, 4.862e-6
3.945e+1, 4.852e-6
3.948e+1, 4.794e-6
3.951e+1, 4.780e-6
3.954e+1, 4.698e-6
3.957e+1, 4.638e-6
3.960e+1, 4.698e-6
3.963e+1, 4.737e-6
3.966e+1, 4.754e-6
3.969e+1, 4.806e-6
3.972e+1, 4.819e-6
3.975e+1, 4.754e-6
3.978e+1, 4.778e-6
3.981e+1, 4.808e-6
3.984e+1, 4.821e-6
3.987e+1, 4.833e-6
3.990e+1, 4.820e-6
3.993e+1, 4.777e-6
3.996e+1, 4.695e-6
3.999e+1, 4.688e-6
4.002e+1, 4.995e-6
4.005e+1, 5.072e-6
4.008e+1, 5.053e-6
4.011e+1, 5.059e-6
4.014e+1, 5.082e-6
4.017e+1, 5.096e-6
4.020e+1, 5.094e-6
4.023e+1, 5.062e-6
4.026e+1, 4.899e-6
4.029e+1, 4.561e-6
4.032e+1, 4.494e-6
4.035e+1, 4.594e-6
4.038e+1, 4.610e-6
4.041e+1, 4.684e-6
4.044e+1, 4.716e-6
4.047e+1, 4.598e-6
4.050e+1, 4.582e-6
4.053e+1, 4.624e-6
4.056e+1, 4.625e-6
4.059e+1, 4.442e-6
4.062e+1, 4.370e-6
4.065e+1, 4.430e-6
4.068e+1, 4.600e-6
4.071e+1, 4.630e-6
4.074e+1, 4.659e-6
4.077e+1, 4.660e-6
4.080e+1, 4.643e-6
4.083e+1, 4.649e-6
4.086e+1, 4.667e-6
4.089e+1, 4.691e-6
4.092e+1, 4.700e-6
4.095e+1, 4.715e-6
4.098e+1, 4.700e-6
4.101e+1, 4.590e-6
4.104e+1, 4.440e-6
4.107e+1, 4.375e-6
4.110e+1, 4.332e-6
4.113e+1, 4.324e-6
4.116e+1, 4.310e-6
4.119e+1, 4.215e-6
4.122e+1, 4.189e-6
4.125e+1, 4.194e-6
4.128e+1, 4.200e-6
4.131e+1, 4.219e-6
4.134e+1, 4.415e-6
4.137e+1, 4.638e-6
4.140e+1, 4.741e-6
4.143e+1, 4.731e-6
4.146e+1, 4.702e-6
4.149e+1, 4.711e-6
4.152e+1, 4.707e-6
4.155e+1, 4.581e-6
4.158e+1, 4.590e-6
4.161e+1, 4.588e-6
4.164e+1, 4.489e-6
4.167e+1, 4.430e-6
4.170e+1, 4.385e-6
4.173e+1, 4.357e-6
4.176e+1, 4.282e-6
4.179e+1, 4.183e-6
4.182e+1, 4.203e-6
4.185e+1, 4.278e-6
4.188e+1, 4.255e-6
