July 5, 2024   17:40:39
Amperometric i-t Curve
File: 8
Data Source:  Experiment
Instrument Model:  CHI760E
Header: 
Note: 

Init E (V) = 0.1
Sample Interval (s) = 0.03
Run Time (sec) = 4e+3
Quiet Time (sec) = 0
Sensitivity (A/V) = 1e-5

Results:

Channel 1:

Time/sec, Current/A

3.000e-2, 1.391e-6
6.000e-2, 1.382e-6
9.000e-2, 1.341e-6
1.200e-1, 1.353e-6
1.500e-1, 1.336e-6
1.800e-1, 1.362e-6
2.100e-1, 1.351e-6
2.400e-1, 1.303e-6
2.700e-1, 1.276e-6
3.000e-1, 1.265e-6
3.300e-1, 1.262e-6
3.600e-1, 1.264e-6
3.900e-1, 1.254e-6
4.200e-1, 1.241e-6
4.500e-1, 1.232e-6
4.800e-1, 1.195e-6
5.100e-1, 1.174e-6
5.400e-1, 1.178e-6
5.700e-1, 1.190e-6
6.000e-1, 1.295e-6
6.300e-1, 1.351e-6
6.600e-1, 1.393e-6
6.900e-1, 1.419e-6
7.200e-1, 1.421e-6
7.500e-1, 1.387e-6
7.800e-1, 1.360e-6
8.100e-1, 1.345e-6
8.400e-1, 1.341e-6
8.700e-1, 1.325e-6
9.000e-1, 1.327e-6
9.300e-1, 1.321e-6
9.600e-1, 1.312e-6
9.900e-1, 1.337e-6
1.020e+0, 1.377e-6
1.050e+0, 1.380e-6
1.080e+0, 1.376e-6
1.110e+0, 1.376e-6
1.140e+0, 1.387e-6
1.170e+0, 1.403e-6
1.200e+0, 1.349e-6
1.230e+0, 1.384e-6
1.260e+0, 1.368e-6
1.290e+0, 1.368e-6
1.320e+0, 1.378e-6
1.350e+0, 1.475e-6
1.380e+0, 1.548e-6
1.410e+0, 1.514e-6
1.440e+0, 1.482e-6
1.470e+0, 1.437e-6
1.500e+0, 1.405e-6
1.530e+0, 1.475e-6
1.560e+0, 1.459e-6
1.590e+0, 1.461e-6
1.620e+0, 1.440e-6
1.650e+0, 1.420e-6
1.680e+0, 1.374e-6
1.710e+0, 1.242e-6
1.740e+0, 9.505e-7
1.770e+0, 8.546e-7
1.800e+0, 8.204e-7
1.830e+0, 5.446e-7
1.860e+0, 3.332e-7
1.890e+0, 1.601e-8
1.920e+0, 8.471e-9
1.950e+0, 8.049e-9
1.980e+0, 7.803e-9
2.010e+0, 5.763e-9
2.040e+0, 7.568e-9
2.070e+0, 7.411e-9
2.100e+0, 6.214e-9
2.130e+0, 7.332e-9
2.160e+0, 7.303e-9
2.190e+0, 7.323e-9
2.220e+0, 5.910e-9
2.250e+0, 7.332e-9
2.280e+0, 7.264e-9
2.310e+0, 5.319e-8
2.340e+0, 2.947e-7
2.370e+0, 3.414e-7
2.400e+0, 4.628e-7
2.430e+0, 5.931e-7
2.460e+0, 6.907e-7
2.490e+0, 5.321e-7
2.520e+0, 3.126e-7
2.550e+0, 2.858e-7
2.580e+0, 5.103e-8
2.610e+0, 6.871e-9
2.640e+0, 7.225e-9
2.670e+0, 7.156e-9
2.700e+0, 5.606e-9
2.730e+0, 6.528e-9
2.760e+0, 5.410e-9
2.790e+0, 1.747e-7
2.820e+0, 3.549e-7
2.850e+0, 3.572e-7
2.880e+0, 1.083e-6
2.910e+0, 1.165e-6
2.940e+0, 1.081e-6
2.970e+0, 1.018e-6
3.000e+0, 4.438e-7
3.030e+0, 1.810e-8
3.060e+0, 8.500e-9
3.090e+0, 7.185e-9
3.120e+0, 7.077e-9
3.150e+0, 5.066e-9
3.180e+0, 6.194e-9
3.210e+0, 4.085e-9
3.240e+0, 5.518e-9
3.270e+0, 7.038e-9
3.300e+0, 6.881e-9
3.330e+0, 6.077e-9
3.360e+0, 6.822e-9
3.390e+0, 6.871e-9
3.420e+0, 6.901e-9
3.450e+0, 5.763e-9
3.480e+0, 6.881e-9
3.510e+0, 6.901e-9
3.540e+0, 4.801e-9
3.570e+0, 6.822e-9
3.600e+0, 1.686e-8
3.630e+0, 3.515e-8
3.660e+0, 5.028e-8
3.690e+0, 1.920e-7
3.720e+0, 1.005e-7
3.750e+0, 9.436e-8
3.780e+0, 1.648e-8
3.810e+0, 7.009e-9
3.840e+0, 1.712e-8
3.870e+0, 6.979e-9
3.900e+0, 6.832e-9
3.930e+0, 6.852e-9
3.960e+0, 5.449e-9
3.990e+0, 6.773e-9
4.020e+0, 6.646e-9
4.050e+0, 4.752e-9
4.080e+0, 6.724e-9
4.110e+0, 6.724e-9
4.140e+0, 6.871e-9
4.170e+0, 6.763e-9
4.200e+0, 6.793e-9
4.230e+0, 6.754e-9
4.260e+0, 4.095e-9
4.290e+0, 2.358e-7
4.320e+0, 4.562e-7
4.350e+0, 6.730e-7
4.380e+0, 6.740e-7
4.410e+0, 6.721e-7
4.440e+0, 6.243e-7
4.470e+0, 4.416e-7
4.500e+0, 2.603e-7
4.530e+0, 2.566e-7
4.560e+0, 2.779e-7
4.590e+0, 2.230e-7
4.620e+0, 1.267e-7
4.650e+0, 4.497e-8
4.680e+0, 6.842e-9
4.710e+0, 6.862e-9
4.740e+0, 6.871e-9
4.770e+0, 4.870e-9
4.800e+0, 6.891e-9
4.830e+0, 6.714e-9
4.860e+0, 5.812e-9
4.890e+0, 6.773e-9
4.920e+0, 6.803e-9
4.950e+0, 6.744e-9
4.980e+0, 5.194e-9
5.010e+0, 6.773e-9
5.040e+0, 1.636e-7
5.070e+0, 3.084e-7
5.100e+0, 4.334e-7
5.130e+0, 3.016e-7
5.160e+0, 2.582e-7
5.190e+0, 2.718e-7
5.220e+0, 1.628e-7
5.250e+0, 3.475e-8
5.280e+0, 1.024e-7
5.310e+0, 9.401e-8
5.340e+0, 9.543e-8
5.370e+0, 2.543e-8
5.400e+0, 6.832e-9
5.430e+0, 6.744e-9
5.460e+0, 6.675e-9
5.490e+0, 4.654e-9
5.520e+0, 6.626e-9
5.550e+0, 6.665e-9
5.580e+0, 6.087e-9
5.610e+0, 6.754e-9
5.640e+0, 6.714e-9
5.670e+0, 6.724e-9
5.700e+0, 5.537e-9
5.730e+0, 6.685e-9
5.760e+0, 1.317e-8
5.790e+0, 1.832e-7
5.820e+0, 2.485e-7
5.850e+0, 2.675e-7
5.880e+0, 2.266e-7
5.910e+0, 2.277e-7
5.940e+0, 2.052e-7
5.970e+0, 5.823e-8
6.000e+0, 8.885e-8
6.030e+0, 9.069e-8
6.060e+0, 1.155e-7
6.090e+0, 4.257e-8
6.120e+0, 6.871e-9
6.150e+0, 6.763e-9
6.180e+0, 6.695e-9
6.210e+0, 5.547e-9
6.240e+0, 6.607e-9
6.270e+0, 5.930e-9
6.300e+0, 2.702e-9
6.330e+0, 6.675e-9
6.360e+0, 6.783e-9
6.390e+0, 6.675e-9
6.420e+0, 6.008e-9
6.450e+0, 6.685e-9
6.480e+0, 2.338e-8
6.510e+0, 1.733e-7
6.540e+0, 3.807e-7
6.570e+0, 5.851e-7
6.600e+0, 5.600e-7
6.630e+0, 3.408e-7
6.660e+0, 2.725e-7
6.690e+0, 1.053e-7
6.720e+0, 8.422e-8
6.750e+0, 8.530e-8
6.780e+0, 6.702e-8
6.810e+0, 8.230e-8
6.840e+0, 3.843e-8
6.870e+0, 7.902e-9
6.900e+0, 6.813e-9
6.930e+0, 5.459e-9
6.960e+0, 6.626e-9
6.990e+0, 6.685e-9
7.020e+0, 4.085e-9
7.050e+0, 6.685e-9
7.080e+0, 6.508e-9
7.110e+0, 6.008e-9
7.140e+0, 6.665e-9
7.170e+0, 6.597e-9
7.200e+0, 6.705e-9
7.230e+0, 9.702e-8
7.260e+0, 3.276e-7
7.290e+0, 6.387e-7
7.320e+0, 6.882e-7
7.350e+0, 4.369e-7
7.380e+0, 2.693e-7
7.410e+0, 2.106e-7
7.440e+0, 8.386e-8
7.470e+0, 1.514e-7
7.500e+0, 1.397e-7
7.530e+0, 1.285e-7
7.560e+0, 1.288e-7
7.590e+0, 6.092e-8
7.620e+0, 3.060e-8
7.650e+0, 7.136e-9
7.680e+0, 6.714e-9
7.710e+0, 5.105e-9
7.740e+0, 4.742e-9
7.770e+0, 6.734e-9
7.800e+0, 6.754e-9
7.830e+0, 6.675e-9
7.860e+0, 6.656e-9
7.890e+0, 6.597e-9
7.920e+0, 6.518e-9
7.950e+0, 6.538e-9
7.980e+0, 1.120e-7
8.010e+0, 4.717e-7
8.040e+0, 6.483e-7
8.070e+0, 6.409e-7
8.100e+0, 6.357e-7
8.130e+0, 4.522e-7
8.160e+0, 1.698e-7
8.190e+0, 1.158e-7
8.220e+0, 1.482e-7
8.250e+0, 1.357e-7
8.280e+0, 1.254e-7
8.310e+0, 1.258e-7
8.340e+0, 9.565e-8
8.370e+0, 6.868e-8
8.400e+0, 4.389e-8
8.430e+0, 1.479e-8
8.460e+0, 4.801e-9
8.490e+0, 6.636e-9
8.520e+0, 6.646e-9
8.550e+0, 5.282e-9
8.580e+0, 6.656e-9
8.610e+0, 6.597e-9
8.640e+0, 6.665e-9
8.670e+0, 5.576e-9
8.700e+0, 1.481e-7
8.730e+0, 4.600e-7
8.760e+0, 8.184e-7
8.790e+0, 9.466e-7
8.820e+0, 9.439e-7
8.850e+0, 8.394e-7
8.880e+0, 6.302e-7
8.910e+0, 1.780e-7
8.940e+0, 2.426e-7
8.970e+0, 2.363e-7
9.000e+0, 2.340e-7
9.030e+0, 1.294e-7
9.060e+0, 1.150e-7
9.090e+0, 1.034e-7
9.120e+0, 7.245e-8
9.150e+0, 6.442e-8
9.180e+0, 6.398e-8
9.210e+0, 1.413e-8
9.240e+0, 7.548e-9
9.270e+0, 4.850e-9
9.300e+0, 6.813e-9
9.330e+0, 6.616e-9
9.360e+0, 6.685e-9
9.390e+0, 6.302e-9
9.420e+0, 5.825e-8
9.450e+0, 4.919e-7
9.480e+0, 8.667e-7
9.510e+0, 1.078e-6
9.540e+0, 1.065e-6
9.570e+0, 9.544e-7
9.600e+0, 9.624e-7
9.630e+0, 6.185e-7
9.660e+0, 5.150e-7
9.690e+0, 5.960e-7
9.720e+0, 6.366e-7
9.750e+0, 6.538e-7
9.780e+0, 3.603e-7
9.810e+0, 2.602e-7
9.840e+0, 1.430e-7
9.870e+0, 1.753e-7
9.900e+0, 1.451e-7
9.930e+0, 1.229e-7
9.960e+0, 1.181e-7
9.990e+0, 1.114e-7
1.002e+1, 1.206e-7
1.005e+1, 1.235e-7
1.008e+1, 1.188e-7
1.011e+1, 4.092e-8
1.014e+1, 1.293e-8
1.017e+1, 2.320e-8
1.020e+1, 4.106e-7
1.023e+1, 8.457e-7
1.026e+1, 1.164e-6
1.029e+1, 1.158e-6
1.032e+1, 1.128e-6
1.035e+1, 1.078e-6
1.038e+1, 9.346e-7
1.041e+1, 6.080e-7
1.044e+1, 7.233e-7
1.047e+1, 7.543e-7
1.050e+1, 7.542e-7
1.053e+1, 6.763e-7
1.056e+1, 6.399e-7
1.059e+1, 3.004e-7
1.062e+1, 2.672e-7
1.065e+1, 1.752e-7
1.068e+1, 1.519e-7
1.071e+1, 1.420e-7
1.074e+1, 1.303e-7
1.077e+1, 1.132e-7
1.080e+1, 8.961e-8
1.083e+1, 9.374e-8
1.086e+1, 1.515e-8
1.089e+1, 7.166e-9
1.092e+1, 1.296e-8
1.095e+1, 2.986e-7
1.098e+1, 8.224e-7
1.101e+1, 9.544e-7
1.104e+1, 9.450e-7
1.107e+1, 9.390e-7
1.110e+1, 9.063e-7
1.113e+1, 8.168e-7
1.116e+1, 3.371e-7
1.119e+1, 5.839e-7
1.122e+1, 6.057e-7
1.125e+1, 6.482e-7
1.128e+1, 6.532e-7
1.131e+1, 6.516e-7
1.134e+1, 5.965e-7
1.137e+1, 2.845e-7
1.140e+1, 2.225e-7
1.143e+1, 1.377e-7
1.146e+1, 1.140e-7
1.149e+1, 1.177e-7
1.152e+1, 1.085e-7
1.155e+1, 9.746e-8
1.158e+1, 1.011e-7
1.161e+1, 5.801e-8
1.164e+1, 1.031e-8
1.167e+1, 4.244e-8
1.170e+1, 5.318e-7
1.173e+1, 9.484e-7
1.176e+1, 9.567e-7
1.179e+1, 9.484e-7
1.182e+1, 9.021e-7
1.185e+1, 8.800e-7
1.188e+1, 9.377e-7
1.191e+1, 7.659e-7
1.194e+1, 9.221e-7
1.197e+1, 9.033e-7
1.200e+1, 9.640e-7
1.203e+1, 9.575e-7
1.206e+1, 7.188e-7
1.209e+1, 7.146e-7
1.212e+1, 6.413e-7
1.215e+1, 6.338e-7
1.218e+1, 5.045e-7
1.221e+1, 3.217e-7
1.224e+1, 3.163e-7
1.227e+1, 3.194e-7
1.230e+1, 3.073e-7
1.233e+1, 2.976e-7
1.236e+1, 2.227e-7
1.239e+1, 1.301e-7
1.242e+1, 1.605e-7
1.245e+1, 5.863e-7
1.248e+1, 1.033e-6
1.251e+1, 1.048e-6
1.254e+1, 1.097e-6
1.257e+1, 1.069e-6
1.260e+1, 1.051e-6
1.263e+1, 1.031e-6
1.266e+1, 9.893e-7
1.269e+1, 9.812e-7
1.272e+1, 9.926e-7
1.275e+1, 9.881e-7
1.278e+1, 9.940e-7
1.281e+1, 9.926e-7
1.284e+1, 9.845e-7
1.287e+1, 8.885e-7
1.290e+1, 6.767e-7
1.293e+1, 5.972e-7
1.296e+1, 4.022e-7
1.299e+1, 2.581e-7
1.302e+1, 2.388e-7
1.305e+1, 2.441e-7
1.308e+1, 2.463e-7
1.311e+1, 2.324e-7
1.314e+1, 1.594e-7
1.317e+1, 1.703e-7
1.320e+1, 5.342e-7
1.323e+1, 1.081e-6
1.326e+1, 1.090e-6
1.329e+1, 1.107e-6
1.332e+1, 1.096e-6
1.335e+1, 1.078e-6
1.338e+1, 1.075e-6
1.341e+1, 1.018e-6
1.344e+1, 9.919e-7
1.347e+1, 1.015e-6
1.350e+1, 1.020e-6
1.353e+1, 1.018e-6
1.356e+1, 9.264e-7
1.359e+1, 8.267e-7
1.362e+1, 8.161e-7
1.365e+1, 5.732e-7
1.368e+1, 3.017e-7
1.371e+1, 2.426e-7
1.374e+1, 1.714e-7
1.377e+1, 1.729e-7
1.380e+1, 1.741e-7
1.383e+1, 1.741e-7
1.386e+1, 1.760e-7
1.389e+1, 1.551e-7
1.392e+1, 1.508e-7
1.395e+1, 2.034e-7
1.398e+1, 9.161e-7
1.401e+1, 1.027e-6
1.404e+1, 1.100e-6
1.407e+1, 1.082e-6
1.410e+1, 1.072e-6
1.413e+1, 1.075e-6
1.416e+1, 1.057e-6
1.419e+1, 7.498e-7
1.422e+1, 8.875e-7
1.425e+1, 6.792e-7
1.428e+1, 6.130e-7
1.431e+1, 6.112e-7
1.434e+1, 4.895e-7
1.437e+1, 5.084e-7
1.440e+1, 4.686e-7
1.443e+1, 3.044e-7
1.446e+1, 1.847e-7
1.449e+1, 1.741e-7
1.452e+1, 1.609e-7
1.455e+1, 1.603e-7
1.458e+1, 1.373e-7
1.461e+1, 1.059e-7
1.464e+1, 1.500e-8
1.467e+1, 6.734e-9
1.470e+1, 1.867e-8
1.473e+1, 2.817e-7
1.476e+1, 9.182e-7
1.479e+1, 9.630e-7
1.482e+1, 9.970e-7
1.485e+1, 9.778e-7
1.488e+1, 9.831e-7
1.491e+1, 8.856e-7
1.494e+1, 4.415e-7
1.497e+1, 8.309e-7
1.500e+1, 8.351e-7
1.503e+1, 8.558e-7
1.506e+1, 8.503e-7
1.509e+1, 8.452e-7
1.512e+1, 7.300e-7
1.515e+1, 5.832e-7
1.518e+1, 3.290e-7
1.521e+1, 2.555e-7
1.524e+1, 1.946e-7
1.527e+1, 1.286e-7
1.530e+1, 1.233e-7
1.533e+1, 1.207e-7
1.536e+1, 1.037e-7
1.539e+1, 9.967e-8
1.542e+1, 1.013e-7
1.545e+1, 7.469e-7
1.548e+1, 9.557e-7
1.551e+1, 9.734e-7
1.554e+1, 9.977e-7
1.557e+1, 9.824e-7
1.560e+1, 9.526e-7
1.563e+1, 9.055e-7
1.566e+1, 7.322e-7
1.569e+1, 8.988e-7
1.572e+1, 8.962e-7
1.575e+1, 9.113e-7
1.578e+1, 8.673e-7
1.581e+1, 6.427e-7
1.584e+1, 7.851e-7
1.587e+1, 6.933e-7
1.590e+1, 4.664e-7
1.593e+1, 2.460e-7
1.596e+1, 2.087e-7
1.599e+1, 2.024e-7
1.602e+1, 1.936e-7
1.605e+1, 1.380e-7
1.608e+1, 1.336e-7
1.611e+1, 1.195e-7
1.614e+1, 1.168e-7
1.617e+1, 3.229e-7
1.620e+1, 9.627e-7
1.623e+1, 1.053e-6
1.626e+1, 1.011e-6
1.629e+1, 9.711e-7
1.632e+1, 9.596e-7
1.635e+1, 9.512e-7
1.638e+1, 9.350e-7
1.641e+1, 8.598e-7
1.644e+1, 8.820e-7
1.647e+1, 8.460e-7
1.650e+1, 8.482e-7
1.653e+1, 8.488e-7
1.656e+1, 8.518e-7
1.659e+1, 7.364e-7
1.662e+1, 7.272e-7
1.665e+1, 7.910e-7
1.668e+1, 7.754e-7
1.671e+1, 4.142e-7
1.674e+1, 2.032e-7
1.677e+1, 2.240e-7
1.680e+1, 1.703e-7
1.683e+1, 1.766e-7
1.686e+1, 1.820e-7
1.689e+1, 2.106e-7
1.692e+1, 2.177e-7
1.695e+1, 7.587e-7
1.698e+1, 1.034e-6
1.701e+1, 1.072e-6
1.704e+1, 1.012e-6
1.707e+1, 1.002e-6
1.710e+1, 1.001e-6
1.713e+1, 9.961e-7
1.716e+1, 9.395e-7
1.719e+1, 9.175e-7
1.722e+1, 9.199e-7
1.725e+1, 9.125e-7
1.728e+1, 9.053e-7
1.731e+1, 8.779e-7
1.734e+1, 8.324e-7
1.737e+1, 7.093e-7
1.740e+1, 6.516e-7
1.743e+1, 6.661e-7
1.746e+1, 6.399e-7
1.749e+1, 2.833e-7
1.752e+1, 3.848e-7
1.755e+1, 2.377e-7
1.758e+1, 1.917e-7
1.761e+1, 1.930e-7
1.764e+1, 1.918e-7
1.767e+1, 1.775e-7
1.770e+1, 1.828e-7
1.773e+1, 3.490e-7
1.776e+1, 9.670e-7
1.779e+1, 1.100e-6
1.782e+1, 1.027e-6
1.785e+1, 1.032e-6
1.788e+1, 1.006e-6
1.791e+1, 1.001e-6
1.794e+1, 9.739e-7
1.797e+1, 8.966e-7
1.800e+1, 8.946e-7
1.803e+1, 9.050e-7
1.806e+1, 9.126e-7
1.809e+1, 9.051e-7
1.812e+1, 8.808e-7
1.815e+1, 7.249e-7
1.818e+1, 6.917e-7
1.821e+1, 6.703e-7
1.824e+1, 5.045e-7
1.827e+1, 2.756e-7
1.830e+1, 2.877e-7
1.833e+1, 2.429e-7
1.836e+1, 1.665e-7
1.839e+1, 1.685e-7
1.842e+1, 1.707e-7
1.845e+1, 1.557e-7
1.848e+1, 1.529e-7
1.851e+1, 1.614e-7
1.854e+1, 6.878e-7
1.857e+1, 9.798e-7
1.860e+1, 1.009e-6
1.863e+1, 1.041e-6
1.866e+1, 1.046e-6
1.869e+1, 1.055e-6
1.872e+1, 1.071e-6
1.875e+1, 9.212e-7
1.878e+1, 9.039e-7
1.881e+1, 9.034e-7
1.884e+1, 8.978e-7
1.887e+1, 8.964e-7
1.890e+1, 8.518e-7
1.893e+1, 7.751e-7
1.896e+1, 6.959e-7
1.899e+1, 4.947e-7
1.902e+1, 1.987e-7
1.905e+1, 1.640e-7
1.908e+1, 1.835e-7
1.911e+1, 1.649e-7
1.914e+1, 1.731e-7
1.917e+1, 1.812e-7
1.920e+1, 1.689e-7
1.923e+1, 1.504e-7
1.926e+1, 7.160e-8
1.929e+1, 8.565e-8
1.932e+1, 1.115e-7
1.935e+1, 7.648e-7
1.938e+1, 1.013e-6
1.941e+1, 9.837e-7
1.944e+1, 9.818e-7
1.947e+1, 9.853e-7
1.950e+1, 9.499e-7
1.953e+1, 8.985e-7
1.956e+1, 8.616e-7
1.959e+1, 9.454e-7
1.962e+1, 9.439e-7
1.965e+1, 9.471e-7
1.968e+1, 8.890e-7
1.971e+1, 6.957e-7
1.974e+1, 6.598e-7
1.977e+1, 2.845e-7
1.980e+1, 2.109e-7
1.983e+1, 1.455e-7
1.986e+1, 1.446e-7
1.989e+1, 1.434e-7
1.992e+1, 1.410e-7
1.995e+1, 1.329e-7
1.998e+1, 1.325e-7
2.001e+1, 1.141e-7
2.004e+1, 8.504e-8
2.007e+1, 8.839e-8
2.010e+1, 1.909e-7
2.013e+1, 8.621e-7
2.016e+1, 1.062e-6
2.019e+1, 1.010e-6
2.022e+1, 1.011e-6
2.025e+1, 9.937e-7
2.028e+1, 9.896e-7
2.031e+1, 9.207e-7
2.034e+1, 8.193e-7
2.037e+1, 8.457e-7
2.040e+1, 8.563e-7
2.043e+1, 8.640e-7
2.046e+1, 7.490e-7
2.049e+1, 7.251e-7
2.052e+1, 7.495e-7
2.055e+1, 4.040e-7
2.058e+1, 2.252e-7
2.061e+1, 1.830e-7
2.064e+1, 1.904e-7
2.067e+1, 1.873e-7
2.070e+1, 1.920e-7
2.073e+1, 1.891e-7
2.076e+1, 1.911e-7
2.079e+1, 2.007e-7
2.082e+1, 1.930e-7
2.085e+1, 2.108e-7
2.088e+1, 7.564e-7
2.091e+1, 1.012e-6
2.094e+1, 1.084e-6
2.097e+1, 1.063e-6
2.100e+1, 1.060e-6
2.103e+1, 1.026e-6
2.106e+1, 1.003e-6
2.109e+1, 8.771e-7
2.112e+1, 8.734e-7
2.115e+1, 8.757e-7
2.118e+1, 8.880e-7
2.121e+1, 8.931e-7
2.124e+1, 8.091e-7
2.127e+1, 7.095e-7
2.130e+1, 7.350e-7
2.133e+1, 8.647e-7
2.136e+1, 5.302e-7
2.139e+1, 2.629e-7
2.142e+1, 1.987e-7
2.145e+1, 1.916e-7
2.148e+1, 1.897e-7
2.151e+1, 1.882e-7
2.154e+1, 2.037e-7
2.157e+1, 1.910e-7
2.160e+1, 2.109e-7
2.163e+1, 3.034e-7
2.166e+1, 9.865e-7
2.169e+1, 1.125e-6
2.172e+1, 1.184e-6
2.175e+1, 1.214e-6
2.178e+1, 1.198e-6
2.181e+1, 1.136e-6
2.184e+1, 1.035e-6
2.187e+1, 9.073e-7
2.190e+1, 9.186e-7
2.193e+1, 9.140e-7
2.196e+1, 9.149e-7
2.199e+1, 9.079e-7
2.202e+1, 7.751e-7
2.205e+1, 7.858e-7
2.208e+1, 8.261e-7
2.211e+1, 8.406e-7
2.214e+1, 5.698e-7
2.217e+1, 3.368e-7
2.220e+1, 3.125e-7
2.223e+1, 2.319e-7
2.226e+1, 2.005e-7
2.229e+1, 1.941e-7
2.232e+1, 1.805e-7
2.235e+1, 1.559e-7
2.238e+1, 2.878e-7
2.241e+1, 4.812e-7
2.244e+1, 1.040e-6
2.247e+1, 1.059e-6
2.250e+1, 1.090e-6
2.253e+1, 1.055e-6
2.256e+1, 1.005e-6
2.259e+1, 9.965e-7
2.262e+1, 9.613e-7
2.265e+1, 9.020e-7
2.268e+1, 9.056e-7
2.271e+1, 9.198e-7
2.274e+1, 9.159e-7
2.277e+1, 7.876e-7
2.280e+1, 8.147e-7
2.283e+1, 8.074e-7
2.286e+1, 4.732e-7
2.289e+1, 3.215e-7
2.292e+1, 2.285e-7
2.295e+1, 1.955e-7
2.298e+1, 1.949e-7
2.301e+1, 1.957e-7
2.304e+1, 1.926e-7
2.307e+1, 1.534e-7
2.310e+1, 2.824e-7
2.313e+1, 3.003e-7
2.316e+1, 8.507e-7
2.319e+1, 1.051e-6
2.322e+1, 1.045e-6
2.325e+1, 1.022e-6
2.328e+1, 1.037e-6
2.331e+1, 1.000e-6
2.334e+1, 8.863e-7
2.337e+1, 7.475e-7
2.340e+1, 8.519e-7
2.343e+1, 9.995e-7
2.346e+1, 1.003e-6
2.349e+1, 8.283e-7
2.352e+1, 8.141e-7
2.355e+1, 7.846e-7
2.358e+1, 4.502e-7
2.361e+1, 3.186e-7
2.364e+1, 2.227e-7
2.367e+1, 1.924e-7
2.370e+1, 1.851e-7
2.373e+1, 1.892e-7
2.376e+1, 1.900e-7
2.379e+1, 2.075e-7
2.382e+1, 2.895e-7
2.385e+1, 3.006e-7
2.388e+1, 8.065e-7
2.391e+1, 1.114e-6
2.394e+1, 1.107e-6
2.397e+1, 1.092e-6
2.400e+1, 1.100e-6
2.403e+1, 1.081e-6
2.406e+1, 1.085e-6
2.409e+1, 9.315e-7
2.412e+1, 9.698e-7
2.415e+1, 9.826e-7
2.418e+1, 9.743e-7
2.421e+1, 9.352e-7
2.424e+1, 8.837e-7
2.427e+1, 8.566e-7
2.430e+1, 8.487e-7
2.433e+1, 8.327e-7
2.436e+1, 6.964e-7
2.439e+1, 4.505e-7
2.442e+1, 3.985e-7
2.445e+1, 4.097e-7
2.448e+1, 2.165e-7
2.451e+1, 1.903e-7
2.454e+1, 1.835e-7
2.457e+1, 1.768e-7
2.460e+1, 7.267e-7
2.463e+1, 1.107e-6
2.466e+1, 1.173e-6
2.469e+1, 1.166e-6
2.472e+1, 1.150e-6
2.475e+1, 1.147e-6
2.478e+1, 1.104e-6
2.481e+1, 1.006e-6
2.484e+1, 1.034e-6
2.487e+1, 1.004e-6
2.490e+1, 1.014e-6
2.493e+1, 9.933e-7
2.496e+1, 9.251e-7
2.499e+1, 8.921e-7
2.502e+1, 7.875e-7
2.505e+1, 8.117e-7
2.508e+1, 8.421e-7
2.511e+1, 9.205e-7
2.514e+1, 8.354e-7
2.517e+1, 7.135e-7
2.520e+1, 5.332e-7
2.523e+1, 4.180e-7
2.526e+1, 2.220e-7
2.529e+1, 2.700e-7
2.532e+1, 6.135e-7
2.535e+1, 1.134e-6
2.538e+1, 1.196e-6
2.541e+1, 1.184e-6
2.544e+1, 1.165e-6
2.547e+1, 1.161e-6
2.550e+1, 1.159e-6
2.553e+1, 1.061e-6
2.556e+1, 9.792e-7
2.559e+1, 1.011e-6
2.562e+1, 1.001e-6
2.565e+1, 9.996e-7
2.568e+1, 9.342e-7
2.571e+1, 8.149e-7
2.574e+1, 7.932e-7
2.577e+1, 7.434e-7
2.580e+1, 4.998e-7
2.583e+1, 4.638e-7
2.586e+1, 2.844e-7
2.589e+1, 2.475e-7
2.592e+1, 3.079e-7
2.595e+1, 1.491e-7
2.598e+1, 1.386e-7
2.601e+1, 1.445e-7
2.604e+1, 5.385e-7
2.607e+1, 1.091e-6
2.610e+1, 1.135e-6
2.613e+1, 1.172e-6
2.616e+1, 1.127e-6
2.619e+1, 1.110e-6
2.622e+1, 1.058e-6
2.625e+1, 9.218e-7
2.628e+1, 9.302e-7
2.631e+1, 9.303e-7
2.634e+1, 9.547e-7
2.637e+1, 9.354e-7
2.640e+1, 8.465e-7
2.643e+1, 8.485e-7
2.646e+1, 8.229e-7
2.649e+1, 8.408e-7
2.652e+1, 8.078e-7
2.655e+1, 5.447e-7
2.658e+1, 3.565e-7
2.661e+1, 3.283e-7
2.664e+1, 3.006e-7
2.667e+1, 1.721e-7
2.670e+1, 1.707e-7
2.673e+1, 6.196e-7
2.676e+1, 1.116e-6
2.679e+1, 1.210e-6
2.682e+1, 1.215e-6
2.685e+1, 1.148e-6
2.688e+1, 1.132e-6
2.691e+1, 1.108e-6
2.694e+1, 1.029e-6
2.697e+1, 1.047e-6
2.700e+1, 1.064e-6
2.703e+1, 1.073e-6
2.706e+1, 1.066e-6
2.709e+1, 9.582e-7
2.712e+1, 8.452e-7
2.715e+1, 8.215e-7
2.718e+1, 7.961e-7
2.721e+1, 8.396e-7
2.724e+1, 8.769e-7
2.727e+1, 7.786e-7
2.730e+1, 4.792e-7
2.733e+1, 4.460e-7
2.736e+1, 3.526e-7
2.739e+1, 3.711e-7
2.742e+1, 4.097e-7
2.745e+1, 1.018e-6
2.748e+1, 1.194e-6
2.751e+1, 1.254e-6
2.754e+1, 1.232e-6
2.757e+1, 1.239e-6
2.760e+1, 1.182e-6
2.763e+1, 1.181e-6
2.766e+1, 9.858e-7
2.769e+1, 1.048e-6
2.772e+1, 1.044e-6
2.775e+1, 1.064e-6
2.778e+1, 9.948e-7
2.781e+1, 9.677e-7
2.784e+1, 9.761e-7
2.787e+1, 8.906e-7
2.790e+1, 8.516e-7
2.793e+1, 8.577e-7
2.796e+1, 8.262e-7
2.799e+1, 7.910e-7
2.802e+1, 8.138e-7
2.805e+1, 7.941e-7
2.808e+1, 5.334e-7
2.811e+1, 4.028e-7
2.814e+1, 4.532e-7
2.817e+1, 9.441e-7
2.820e+1, 1.174e-6
2.823e+1, 1.295e-6
2.826e+1, 1.274e-6
2.829e+1, 1.268e-6
2.832e+1, 1.262e-6
2.835e+1, 1.260e-6
2.838e+1, 1.143e-6
2.841e+1, 1.178e-6
2.844e+1, 1.156e-6
2.847e+1, 1.075e-6
2.850e+1, 1.076e-6
2.853e+1, 9.985e-7
2.856e+1, 9.705e-7
2.859e+1, 9.682e-7
2.862e+1, 8.863e-7
2.865e+1, 8.518e-7
2.868e+1, 8.358e-7
2.871e+1, 8.234e-7
2.874e+1, 8.365e-7
2.877e+1, 8.332e-7
2.880e+1, 7.741e-7
2.883e+1, 5.474e-7
2.886e+1, 6.194e-7
2.889e+1, 8.597e-7
2.892e+1, 1.233e-6
2.895e+1, 1.324e-6
2.898e+1, 1.196e-6
2.901e+1, 1.185e-6
2.904e+1, 1.206e-6
2.907e+1, 1.229e-6
2.910e+1, 1.145e-6
2.913e+1, 1.076e-6
2.916e+1, 1.089e-6
2.919e+1, 1.088e-6
2.922e+1, 1.082e-6
2.925e+1, 1.068e-6
2.928e+1, 1.033e-6
2.931e+1, 8.840e-7
2.934e+1, 8.124e-7
2.937e+1, 7.869e-7
2.940e+1, 6.269e-7
2.943e+1, 4.603e-7
2.946e+1, 3.075e-7
2.949e+1, 3.416e-7
2.952e+1, 2.681e-7
2.955e+1, 2.852e-7
2.958e+1, 3.823e-7
2.961e+1, 9.919e-7
2.964e+1, 1.146e-6
2.967e+1, 1.278e-6
2.970e+1, 1.263e-6
2.973e+1, 1.160e-6
2.976e+1, 1.142e-6
2.979e+1, 1.118e-6
2.982e+1, 9.938e-7
2.985e+1, 1.081e-6
2.988e+1, 1.087e-6
2.991e+1, 1.089e-6
2.994e+1, 1.101e-6
2.997e+1, 1.028e-6
3.000e+1, 8.742e-7
3.003e+1, 9.107e-7
3.006e+1, 9.168e-7
3.009e+1, 8.943e-7
3.012e+1, 8.408e-7
3.015e+1, 6.608e-7
3.018e+1, 6.699e-7
3.021e+1, 4.539e-7
3.024e+1, 4.442e-7
3.027e+1, 4.324e-7
3.030e+1, 9.575e-7
3.033e+1, 1.254e-6
3.036e+1, 1.169e-6
3.039e+1, 1.230e-6
3.042e+1, 1.224e-6
3.045e+1, 1.211e-6
3.048e+1, 1.202e-6
3.051e+1, 1.076e-6
3.054e+1, 1.193e-6
3.057e+1, 1.186e-6
3.060e+1, 1.102e-6
3.063e+1, 1.046e-6
3.066e+1, 9.526e-7
3.069e+1, 7.782e-7
3.072e+1, 7.202e-7
3.075e+1, 7.366e-7
3.078e+1, 7.380e-7
3.081e+1, 7.410e-7
3.084e+1, 7.449e-7
3.087e+1, 6.994e-7
3.090e+1, 6.531e-7
3.093e+1, 6.561e-7
3.096e+1, 6.590e-7
3.099e+1, 6.498e-7
3.102e+1, 9.932e-7
3.105e+1, 1.342e-6
3.108e+1, 1.510e-6
3.111e+1, 1.503e-6
3.114e+1, 1.503e-6
3.117e+1, 1.551e-6
3.120e+1, 1.558e-6
3.123e+1, 1.194e-6
3.126e+1, 1.208e-6
3.129e+1, 1.197e-6
3.132e+1, 1.192e-6
3.135e+1, 1.147e-6
3.138e+1, 9.251e-7
3.141e+1, 8.902e-7
3.144e+1, 9.089e-7
3.147e+1, 7.584e-7
3.150e+1, 6.367e-7
3.153e+1, 6.531e-7
3.156e+1, 6.381e-7
3.159e+1, 6.933e-7
3.162e+1, 7.253e-7
3.165e+1, 5.981e-7
3.168e+1, 3.995e-7
3.171e+1, 4.348e-7
3.174e+1, 8.535e-7
3.177e+1, 1.160e-6
3.180e+1, 1.561e-6
3.183e+1, 1.577e-6
3.186e+1, 1.556e-6
3.189e+1, 1.545e-6
3.192e+1, 1.495e-6
3.195e+1, 9.892e-7
3.198e+1, 9.232e-7
3.201e+1, 9.275e-7
3.204e+1, 9.264e-7
3.207e+1, 9.325e-7
3.210e+1, 9.163e-7
3.213e+1, 9.996e-7
3.216e+1, 1.000e-6
3.219e+1, 8.141e-7
3.222e+1, 7.721e-7
3.225e+1, 7.610e-7
3.228e+1, 7.264e-7
3.231e+1, 6.478e-7
3.234e+1, 6.285e-7
3.237e+1, 6.781e-7
3.240e+1, 5.007e-7
3.243e+1, 7.801e-7
3.246e+1, 1.101e-6
3.249e+1, 1.457e-6
3.252e+1, 1.607e-6
3.255e+1, 1.556e-6
3.258e+1, 1.292e-6
3.261e+1, 1.238e-6
3.264e+1, 9.274e-7
3.267e+1, 9.207e-7
3.270e+1, 9.191e-7
3.273e+1, 9.199e-7
3.276e+1, 9.257e-7
3.279e+1, 9.013e-7
3.282e+1, 9.261e-7
3.285e+1, 7.825e-7
3.288e+1, 6.073e-7
3.291e+1, 6.184e-7
3.294e+1, 4.650e-7
3.297e+1, 3.780e-7
3.300e+1, 4.197e-7
3.303e+1, 4.589e-7
3.306e+1, 4.365e-7
3.309e+1, 4.261e-7
3.312e+1, 5.783e-7
3.315e+1, 9.730e-7
3.318e+1, 1.035e-6
3.321e+1, 1.039e-6
3.324e+1, 1.023e-6
3.327e+1, 9.890e-7
3.330e+1, 9.876e-7
3.333e+1, 8.762e-7
3.336e+1, 9.094e-7
3.339e+1, 9.292e-7
3.342e+1, 9.238e-7
3.345e+1, 9.259e-7
3.348e+1, 9.971e-7
3.351e+1, 8.946e-7
3.354e+1, 7.443e-7
3.357e+1, 6.650e-7
3.360e+1, 6.481e-7
3.363e+1, 6.581e-7
3.366e+1, 4.624e-7
3.369e+1, 5.008e-7
3.372e+1, 4.150e-7
3.375e+1, 4.511e-7
3.378e+1, 5.166e-7
3.381e+1, 9.202e-7
3.384e+1, 1.038e-6
3.387e+1, 1.075e-6
3.390e+1, 1.082e-6
3.393e+1, 1.073e-6
3.396e+1, 1.141e-6
3.399e+1, 1.063e-6
3.402e+1, 9.324e-7
3.405e+1, 9.206e-7
3.408e+1, 9.210e-7
3.411e+1, 9.178e-7
3.414e+1, 9.104e-7
3.417e+1, 9.859e-7
3.420e+1, 8.916e-7
3.423e+1, 7.710e-7
3.426e+1, 6.418e-7
3.429e+1, 6.142e-7
3.432e+1, 6.300e-7
3.435e+1, 7.601e-7
3.438e+1, 6.479e-7
3.441e+1, 4.565e-7
3.444e+1, 4.912e-7
3.447e+1, 6.792e-7
3.450e+1, 1.079e-6
3.453e+1, 1.188e-6
3.456e+1, 1.482e-6
3.459e+1, 1.463e-6
3.462e+1, 1.459e-6
3.465e+1, 1.455e-6
3.468e+1, 1.121e-6
3.471e+1, 1.047e-6
3.474e+1, 1.062e-6
3.477e+1, 9.453e-7
3.480e+1, 9.227e-7
3.483e+1, 9.189e-7
3.486e+1, 9.256e-7
3.489e+1, 9.158e-7
3.492e+1, 8.464e-7
3.495e+1, 7.678e-7
3.498e+1, 6.591e-7
3.501e+1, 6.139e-7
3.504e+1, 6.146e-7
3.507e+1, 6.474e-7
3.510e+1, 4.984e-7
3.513e+1, 5.542e-7
3.516e+1, 7.105e-7
3.519e+1, 1.043e-6
3.522e+1, 1.214e-6
3.525e+1, 1.491e-6
3.528e+1, 1.422e-6
3.531e+1, 1.394e-6
3.534e+1, 1.380e-6
3.537e+1, 1.005e-6
3.540e+1, 9.550e-7
3.543e+1, 9.606e-7
3.546e+1, 9.629e-7
3.549e+1, 9.638e-7
3.552e+1, 9.163e-7
3.555e+1, 9.066e-7
3.558e+1, 8.704e-7
3.561e+1, 7.589e-7
3.564e+1, 6.747e-7
3.567e+1, 4.881e-7
3.570e+1, 3.473e-7
3.573e+1, 4.101e-7
3.576e+1, 3.552e-7
3.579e+1, 3.224e-7
3.582e+1, 3.297e-7
3.585e+1, 8.404e-7
3.588e+1, 1.081e-6
3.591e+1, 1.044e-6
3.594e+1, 1.038e-6
3.597e+1, 1.017e-6
3.600e+1, 9.897e-7
3.603e+1, 9.513e-7
3.606e+1, 8.575e-7
3.609e+1, 9.468e-7
3.612e+1, 9.596e-7
3.615e+1, 9.605e-7
3.618e+1, 1.013e-6
3.621e+1, 8.889e-7
3.624e+1, 8.790e-7
3.627e+1, 8.789e-7
3.630e+1, 7.066e-7
3.633e+1, 6.466e-7
3.636e+1, 3.478e-7
3.639e+1, 4.375e-7
3.642e+1, 4.456e-7
3.645e+1, 4.324e-7
3.648e+1, 4.744e-7
3.651e+1, 8.420e-7
3.654e+1, 1.071e-6
3.657e+1, 1.096e-6
3.660e+1, 1.335e-6
3.663e+1, 1.326e-6
3.666e+1, 1.319e-6
3.669e+1, 1.307e-6
3.672e+1, 9.523e-7
3.675e+1, 9.899e-7
3.678e+1, 1.003e-6
3.681e+1, 1.004e-6
3.684e+1, 9.542e-7
3.687e+1, 9.381e-7
3.690e+1, 9.312e-7
3.693e+1, 9.415e-7
3.696e+1, 1.029e-6
3.699e+1, 9.099e-7
3.702e+1, 8.902e-7
3.705e+1, 8.192e-7
3.708e+1, 7.884e-7
3.711e+1, 6.550e-7
3.714e+1, 7.336e-7
3.717e+1, 7.499e-7
3.720e+1, 1.088e-6
3.723e+1, 1.540e-6
3.726e+1, 1.555e-6
3.729e+1, 1.573e-6
3.732e+1, 1.569e-6
3.735e+1, 1.555e-6
3.738e+1, 1.525e-6
3.741e+1, 1.484e-6
3.744e+1, 1.524e-6
3.747e+1, 1.510e-6
3.750e+1, 1.487e-6
3.753e+1, 1.221e-6
3.756e+1, 9.213e-7
3.759e+1, 9.371e-7
3.762e+1, 9.440e-7
3.765e+1, 9.406e-7
3.768e+1, 9.397e-7
3.771e+1, 9.408e-7
3.774e+1, 9.338e-7
3.777e+1, 9.339e-7
3.780e+1, 8.743e-7
3.783e+1, 7.961e-7
3.786e+1, 8.128e-7
3.789e+1, 1.033e-6
3.792e+1, 1.464e-6
3.795e+1, 1.615e-6
3.798e+1, 1.615e-6
3.801e+1, 1.593e-6
3.804e+1, 1.602e-6
3.807e+1, 1.592e-6
3.810e+1, 1.655e-6
3.813e+1, 1.614e-6
3.816e+1, 1.610e-6
3.819e+1, 1.585e-6
3.822e+1, 1.571e-6
3.825e+1, 1.483e-6
3.828e+1, 1.418e-6
3.831e+1, 1.209e-6
3.834e+1, 1.120e-6
3.837e+1, 1.091e-6
3.840e+1, 1.076e-6
3.843e+1, 1.077e-6
3.846e+1, 1.064e-6
3.849e+1, 1.074e-6
3.852e+1, 1.087e-6
3.855e+1, 8.265e-7
3.858e+1, 7.871e-7
3.861e+1, 8.046e-7
3.864e+1, 1.180e-6
3.867e+1, 1.567e-6
3.870e+1, 1.683e-6
3.873e+1, 1.686e-6
3.876e+1, 1.681e-6
3.879e+1, 1.676e-6
3.882e+1, 1.597e-6
3.885e+1, 1.208e-6
3.888e+1, 1.452e-6
3.891e+1, 1.134e-6
3.894e+1, 1.108e-6
3.897e+1, 1.057e-6
3.900e+1, 9.955e-7
3.903e+1, 1.036e-6
3.906e+1, 1.045e-6
3.909e+1, 1.049e-6
3.912e+1, 1.050e-6
3.915e+1, 1.022e-6
3.918e+1, 1.003e-6
3.921e+1, 9.947e-7
3.924e+1, 8.545e-7
3.927e+1, 7.828e-7
3.930e+1, 7.830e-7
3.933e+1, 8.955e-7
3.936e+1, 1.109e-6
3.939e+1, 1.448e-6
3.942e+1, 1.481e-6
3.945e+1, 1.489e-6
3.948e+1, 1.503e-6
3.951e+1, 1.511e-6
3.954e+1, 1.356e-6
3.957e+1, 1.451e-6
3.960e+1, 1.480e-6
3.963e+1, 1.523e-6
3.966e+1, 1.563e-6
3.969e+1, 1.490e-6
3.972e+1, 1.487e-6
3.975e+1, 1.481e-6
3.978e+1, 1.434e-6
3.981e+1, 1.440e-6
3.984e+1, 1.506e-6
3.987e+1, 1.514e-6
3.990e+1, 1.526e-6
3.993e+1, 1.275e-6
3.996e+1, 1.226e-6
3.999e+1, 1.484e-6
4.002e+1, 1.594e-6
4.005e+1, 1.331e-6
4.008e+1, 1.323e-6
4.011e+1, 1.739e-6
4.014e+1, 1.803e-6
4.017e+1, 1.953e-6
4.020e+1, 1.970e-6
4.023e+1, 1.967e-6
4.026e+1, 1.882e-6
4.029e+1, 1.732e-6
4.032e+1, 1.702e-6
4.035e+1, 1.530e-6
4.038e+1, 1.120e-6
4.041e+1, 1.062e-6
4.044e+1, 1.086e-6
4.047e+1, 1.063e-6
4.050e+1, 8.134e-7
4.053e+1, 7.119e-7
4.056e+1, 7.560e-7
4.059e+1, 7.342e-7
4.062e+1, 5.192e-7
4.065e+1, 2.145e-7
4.068e+1, 4.680e-7
4.071e+1, 5.249e-7
4.074e+1, 5.850e-7
4.077e+1, 6.647e-7
4.080e+1, 9.914e-7
4.083e+1, 1.131e-6
4.086e+1, 1.208e-6
4.089e+1, 1.251e-6
4.092e+1, 1.351e-6
4.095e+1, 1.364e-6
4.098e+1, 1.390e-6
4.101e+1, 1.230e-6
4.104e+1, 1.107e-6
4.107e+1, 1.037e-6
4.110e+1, 9.197e-7
4.113e+1, 7.500e-7
4.116e+1, 6.810e-7
4.119e+1, 6.629e-7
4.122e+1, 6.204e-7
4.125e+1, 5.842e-7
4.128e+1, 5.713e-7
4.131e+1, 5.664e-7
4.134e+1, 5.686e-7
4.137e+1, 8.874e-7
4.140e+1, 1.198e-6
4.143e+1, 1.355e-6
4.146e+1, 1.547e-6
4.149e+1, 1.311e-6
4.152e+1, 1.236e-6
4.155e+1, 1.250e-6
4.158e+1, 1.144e-6
4.161e+1, 7.368e-7
4.164e+1, 6.862e-7
4.167e+1, 5.839e-7
4.170e+1, 5.003e-7
4.173e+1, 5.144e-7
4.176e+1, 7.829e-7
4.179e+1, 1.157e-6
4.182e+1, 1.157e-6
4.185e+1, 1.146e-6
4.188e+1, 1.144e-6
4.191e+1, 1.128e-6
4.194e+1, 1.140e-6
4.197e+1, 1.129e-6
4.200e+1, 1.125e-6
4.203e+1, 1.159e-6
4.206e+1, 1.215e-6
4.209e+1, 1.280e-6
4.212e+1, 1.264e-6
4.215e+1, 1.291e-6
4.218e+1, 1.305e-6
4.221e+1, 1.298e-6
4.224e+1, 1.287e-6
4.227e+1, 1.225e-6
4.230e+1, 1.194e-6
4.233e+1, 1.150e-6
4.236e+1, 1.182e-6
4.239e+1, 1.232e-6
4.242e+1, 1.194e-6
4.245e+1, 1.121e-6
