July 5, 2024   17:31:38
Amperometric i-t Curve
File: 4
Data Source:  Experiment
Instrument Model:  CHI760E
Header: 
Note: 

Init E (V) = 0.1
Sample Interval (s) = 0.03
Run Time (sec) = 4e+3
Quiet Time (sec) = 0
Sensitivity (A/V) = 1e-5

Results:

Channel 1:

Time/sec, Current/A

3.000e-2, 4.379e-6
6.000e-2, 4.486e-6
9.000e-2, 4.506e-6
1.200e-1, 4.500e-6
1.500e-1, 4.511e-6
1.800e-1, 4.521e-6
2.100e-1, 4.538e-6
2.400e-1, 4.554e-6
2.700e-1, 4.557e-6
3.000e-1, 4.578e-6
3.300e-1, 4.597e-6
3.600e-1, 4.612e-6
3.900e-1, 4.609e-6
4.200e-1, 4.623e-6
4.500e-1, 4.604e-6
4.800e-1, 4.623e-6
5.100e-1, 4.650e-6
5.400e-1, 4.712e-6
5.700e-1, 4.707e-6
6.000e-1, 4.759e-6
6.300e-1, 4.778e-6
6.600e-1, 4.760e-6
6.900e-1, 4.793e-6
7.200e-1, 4.922e-6
7.500e-1, 4.838e-6
7.800e-1, 4.804e-6
8.100e-1, 4.806e-6
8.400e-1, 4.787e-6
8.700e-1, 4.707e-6
9.000e-1, 4.715e-6
9.300e-1, 4.840e-6
9.600e-1, 4.781e-6
9.900e-1, 4.710e-6
1.020e+0, 4.826e-6
1.050e+0, 4.728e-6
1.080e+0, 4.709e-6
1.110e+0, 4.715e-6
1.140e+0, 4.715e-6
1.170e+0, 4.738e-6
1.200e+0, 4.752e-6
1.230e+0, 4.723e-6
1.260e+0, 4.695e-6
1.290e+0, 4.769e-6
1.320e+0, 4.795e-6
1.350e+0, 4.777e-6
1.380e+0, 4.765e-6
1.410e+0, 4.802e-6
1.440e+0, 4.812e-6
1.470e+0, 4.950e-6
1.500e+0, 4.889e-6
1.530e+0, 4.785e-6
1.560e+0, 4.859e-6
1.590e+0, 4.983e-6
1.620e+0, 4.872e-6
1.650e+0, 4.846e-6
1.680e+0, 4.837e-6
1.710e+0, 4.752e-6
1.740e+0, 4.683e-6
1.770e+0, 4.690e-6
1.800e+0, 4.665e-6
1.830e+0, 4.571e-6
1.860e+0, 4.557e-6
1.890e+0, 4.472e-6
1.920e+0, 4.335e-6
1.950e+0, 4.196e-6
1.980e+0, 4.207e-6
2.010e+0, 4.221e-6
2.040e+0, 4.076e-6
2.070e+0, 3.882e-6
2.100e+0, 3.741e-6
2.130e+0, 3.525e-6
2.160e+0, 3.249e-6
2.190e+0, 2.903e-6
2.220e+0, 2.476e-6
2.250e+0, 1.990e-6
2.280e+0, 1.448e-6
2.310e+0, 1.115e-6
2.340e+0, 6.933e-7
2.370e+0, 5.419e-7
2.400e+0, 5.455e-7
2.430e+0, 5.485e-7
2.460e+0, 4.766e-7
2.490e+0, 4.877e-7
2.520e+0, 6.465e-7
2.550e+0, 1.098e-6
2.580e+0, 1.175e-6
2.610e+0, 1.233e-6
2.640e+0, 1.258e-6
2.670e+0, 1.046e-6
2.700e+0, 7.769e-7
2.730e+0, 9.062e-7
2.760e+0, 9.937e-7
2.790e+0, 1.294e-6
2.820e+0, 1.683e-6
2.850e+0, 1.956e-6
2.880e+0, 2.577e-6
2.910e+0, 2.894e-6
2.940e+0, 2.875e-6
2.970e+0, 2.731e-6
3.000e+0, 2.568e-6
3.030e+0, 2.468e-6
3.060e+0, 2.072e-6
3.090e+0, 1.888e-6
3.120e+0, 1.649e-6
3.150e+0, 1.160e-6
3.180e+0, 8.859e-7
3.210e+0, 7.293e-7
3.240e+0, 1.114e-7
3.270e+0, 1.461e-8
3.300e+0, 7.421e-9
3.330e+0, 7.205e-9
3.360e+0, 5.007e-9
3.390e+0, 7.097e-9
3.420e+0, 6.714e-9
3.450e+0, 5.351e-9
3.480e+0, 6.813e-9
3.510e+0, 1.341e-8
3.540e+0, 4.980e-8
3.570e+0, 3.916e-7
3.600e+0, 5.291e-8
3.630e+0, 5.048e-8
3.660e+0, 8.501e-8
3.690e+0, 1.646e-7
3.720e+0, 2.385e-8
3.750e+0, 6.862e-9
3.780e+0, 6.557e-9
3.810e+0, 6.499e-9
3.840e+0, 6.587e-9
3.870e+0, 1.381e-8
3.900e+0, 4.177e-8
3.930e+0, 1.787e-7
3.960e+0, 1.526e-7
3.990e+0, 1.671e-8
4.020e+0, 6.763e-9
4.050e+0, 7.126e-9
4.080e+0, 5.400e-9
4.110e+0, 6.773e-9
4.140e+0, 6.675e-9
4.170e+0, 4.399e-9
4.200e+0, 6.616e-9
4.230e+0, 1.689e-8
4.260e+0, 5.822e-9
4.290e+0, 7.195e-9
4.320e+0, 3.415e-8
4.350e+0, 6.281e-8
4.380e+0, 8.804e-9
4.410e+0, 8.922e-8
4.440e+0, 1.607e-6
4.470e+0, 2.339e-6
4.500e+0, 1.918e-6
4.530e+0, 2.119e-6
4.560e+0, 2.226e-6
4.590e+0, 2.689e-6
4.620e+0, 2.208e-6
4.650e+0, 1.024e-6
4.680e+0, 4.990e-7
4.710e+0, 9.853e-8
4.740e+0, 1.167e-7
4.770e+0, 8.510e-9
4.800e+0, 5.979e-9
4.830e+0, 7.107e-9
4.860e+0, 6.636e-9
4.890e+0, 5.135e-9
4.920e+0, 6.577e-9
4.950e+0, 6.607e-9
4.980e+0, 5.125e-9
5.010e+0, 6.881e-9
5.040e+0, 6.656e-9
5.070e+0, 1.953e-7
5.100e+0, 9.126e-7
5.130e+0, 1.363e-6
5.160e+0, 2.096e-6
5.190e+0, 2.747e-6
5.220e+0, 3.093e-6
5.250e+0, 3.162e-6
5.280e+0, 3.340e-6
5.310e+0, 3.561e-6
5.340e+0, 3.811e-6
5.370e+0, 3.856e-6
5.400e+0, 3.787e-6
5.430e+0, 3.856e-6
5.460e+0, 3.851e-6
5.490e+0, 3.962e-6
5.520e+0, 4.146e-6
5.550e+0, 4.246e-6
5.580e+0, 4.254e-6
5.610e+0, 4.280e-6
5.640e+0, 4.280e-6
5.670e+0, 4.294e-6
5.700e+0, 4.323e-6
5.730e+0, 4.323e-6
5.760e+0, 4.310e-6
5.790e+0, 4.282e-6
5.820e+0, 4.308e-6
5.850e+0, 4.219e-6
5.880e+0, 4.312e-6
5.910e+0, 4.208e-6
5.940e+0, 4.126e-6
5.970e+0, 4.149e-6
6.000e+0, 4.100e-6
6.030e+0, 4.044e-6
6.060e+0, 4.079e-6
6.090e+0, 4.102e-6
6.120e+0, 4.180e-6
6.150e+0, 4.307e-6
6.180e+0, 4.383e-6
6.210e+0, 4.323e-6
6.240e+0, 4.270e-6
6.270e+0, 4.312e-6
6.300e+0, 4.343e-6
6.330e+0, 4.324e-6
6.360e+0, 4.284e-6
6.390e+0, 4.295e-6
6.420e+0, 4.308e-6
6.450e+0, 4.284e-6
6.480e+0, 4.284e-6
6.510e+0, 4.327e-6
6.540e+0, 4.324e-6
6.570e+0, 4.297e-6
6.600e+0, 4.285e-6
6.630e+0, 4.165e-6
6.660e+0, 4.154e-6
6.690e+0, 4.134e-6
6.720e+0, 4.098e-6
6.750e+0, 4.103e-6
6.780e+0, 4.156e-6
6.810e+0, 4.137e-6
6.840e+0, 4.106e-6
6.870e+0, 4.164e-6
6.900e+0, 4.215e-6
6.930e+0, 4.240e-6
6.960e+0, 4.316e-6
6.990e+0, 4.297e-6
7.020e+0, 4.280e-6
7.050e+0, 4.221e-6
7.080e+0, 4.227e-6
7.110e+0, 4.224e-6
7.140e+0, 4.241e-6
7.170e+0, 4.244e-6
7.200e+0, 4.241e-6
7.230e+0, 4.210e-6
7.260e+0, 4.178e-6
7.290e+0, 4.135e-6
7.320e+0, 4.136e-6
7.350e+0, 4.035e-6
7.380e+0, 3.995e-6
7.410e+0, 3.991e-6
7.440e+0, 3.981e-6
7.470e+0, 3.981e-6
7.500e+0, 3.902e-6
7.530e+0, 3.811e-6
7.560e+0, 3.753e-6
7.590e+0, 3.867e-6
7.620e+0, 3.897e-6
7.650e+0, 3.906e-6
7.680e+0, 3.926e-6
7.710e+0, 3.990e-6
7.740e+0, 4.039e-6
7.770e+0, 4.100e-6
7.800e+0, 4.223e-6
7.830e+0, 4.220e-6
7.860e+0, 4.231e-6
7.890e+0, 4.234e-6
7.920e+0, 4.229e-6
7.950e+0, 4.212e-6
7.980e+0, 4.163e-6
8.010e+0, 4.160e-6
8.040e+0, 4.169e-6
8.070e+0, 4.067e-6
8.100e+0, 4.042e-6
8.130e+0, 3.973e-6
8.160e+0, 3.938e-6
8.190e+0, 3.782e-6
8.220e+0, 3.844e-6
8.250e+0, 3.748e-6
8.280e+0, 3.636e-6
8.310e+0, 3.477e-6
8.340e+0, 3.102e-6
8.370e+0, 2.730e-6
8.400e+0, 2.411e-6
8.430e+0, 2.006e-6
8.460e+0, 2.147e-6
8.490e+0, 2.023e-6
8.520e+0, 1.924e-6
8.550e+0, 2.087e-6
8.580e+0, 2.118e-6
8.610e+0, 2.090e-6
8.640e+0, 2.071e-6
8.670e+0, 2.250e-6
8.700e+0, 2.412e-6
8.730e+0, 2.444e-6
8.760e+0, 2.615e-6
8.790e+0, 2.740e-6
8.820e+0, 2.746e-6
8.850e+0, 2.805e-6
8.880e+0, 2.769e-6
8.910e+0, 2.708e-6
8.940e+0, 2.578e-6
8.970e+0, 2.475e-6
9.000e+0, 2.285e-6
9.030e+0, 2.203e-6
9.060e+0, 2.196e-6
9.090e+0, 2.155e-6
9.120e+0, 2.178e-6
9.150e+0, 2.160e-6
9.180e+0, 1.993e-6
9.210e+0, 1.796e-6
9.240e+0, 1.685e-6
9.270e+0, 1.513e-6
9.300e+0, 1.391e-6
9.330e+0, 1.139e-6
9.360e+0, 6.178e-7
9.390e+0, 3.400e-7
9.420e+0, 1.079e-7
9.450e+0, 1.293e-7
9.480e+0, 6.257e-8
9.510e+0, 8.108e-9
9.540e+0, 8.696e-9
9.570e+0, 8.294e-9
9.600e+0, 4.458e-9
9.630e+0, 5.655e-9
9.660e+0, 7.568e-9
9.690e+0, 5.596e-9
9.720e+0, 5.459e-9
9.750e+0, 7.342e-9
9.780e+0, 7.813e-9
9.810e+0, 3.208e-8
9.840e+0, 1.668e-7
9.870e+0, 3.616e-7
9.900e+0, 4.309e-7
9.930e+0, 4.427e-7
9.960e+0, 3.244e-7
9.990e+0, 2.017e-7
1.002e+1, 2.396e-8
1.005e+1, 9.854e-9
1.008e+1, 6.744e-9
1.011e+1, 3.614e-9
1.014e+1, 6.999e-9
1.017e+1, 6.734e-9
1.020e+1, 5.655e-9
1.023e+1, 6.714e-9
1.026e+1, 6.224e-9
1.029e+1, 6.557e-9
1.032e+1, 3.634e-9
1.035e+1, 6.557e-9
1.038e+1, 6.744e-9
1.041e+1, 5.979e-9
1.044e+1, 6.607e-9
1.047e+1, 6.754e-9
1.050e+1, 6.763e-9
1.053e+1, 5.311e-9
1.056e+1, 6.656e-9
1.059e+1, 6.695e-9
1.062e+1, 4.968e-9
1.065e+1, 6.754e-9
1.068e+1, 6.930e-9
1.071e+1, 6.705e-9
1.074e+1, 6.685e-9
1.077e+1, 6.773e-9
1.080e+1, 6.361e-9
1.083e+1, 4.546e-9
1.086e+1, 6.508e-9
1.089e+1, 6.538e-9
1.092e+1, 5.007e-9
1.095e+1, 7.107e-9
1.098e+1, 6.518e-9
1.101e+1, 6.459e-9
1.104e+1, 5.331e-9
1.107e+1, 6.607e-9
1.110e+1, 6.450e-9
1.113e+1, 3.830e-9
1.116e+1, 6.557e-9
1.119e+1, 6.557e-9
1.122e+1, 6.361e-9
1.125e+1, 5.861e-9
1.128e+1, 7.951e-9
1.131e+1, 7.401e-9
1.134e+1, 3.918e-9
1.137e+1, 6.626e-9
1.140e+1, 6.499e-9
1.143e+1, 5.164e-9
1.146e+1, 5.468e-9
1.149e+1, 6.656e-9
1.152e+1, 6.567e-9
1.155e+1, 4.615e-9
1.158e+1, 6.538e-9
1.161e+1, 6.695e-9
1.164e+1, 3.732e-9
1.167e+1, 6.253e-9
1.170e+1, 8.137e-9
1.173e+1, 7.087e-9
1.176e+1, 4.821e-9
1.179e+1, 7.077e-9
1.182e+1, 7.254e-9
1.185e+1, 5.979e-9
1.188e+1, 8.235e-9
1.191e+1, 6.989e-9
1.194e+1, 5.164e-9
1.197e+1, 5.665e-9
1.200e+1, 5.969e-9
1.203e+1, 6.283e-9
1.206e+1, 2.417e-9
1.209e+1, 8.706e-9
1.212e+1, 6.116e-9
1.215e+1, 5.066e-9
1.218e+1, 6.479e-9
1.221e+1, 6.626e-9
1.224e+1, 6.371e-9
1.227e+1, 6.312e-9
1.230e+1, 1.066e-8
1.233e+1, 6.989e-9
1.236e+1, 4.340e-9
1.239e+1, 6.528e-9
1.242e+1, 5.871e-9
1.245e+1, 6.420e-9
1.248e+1, 5.900e-9
1.251e+1, 6.695e-9
1.254e+1, 6.057e-9
1.257e+1, 4.095e-9
1.260e+1, 6.783e-9
1.263e+1, 6.881e-9
1.266e+1, 6.744e-9
1.269e+1, 6.400e-9
1.272e+1, 5.851e-9
1.275e+1, 6.479e-9
1.278e+1, 5.949e-9
1.281e+1, 6.695e-9
1.284e+1, 6.557e-9
1.287e+1, 4.635e-9
1.290e+1, 6.420e-9
1.293e+1, 5.321e-9
1.296e+1, 5.655e-9
1.299e+1, 4.841e-9
1.302e+1, 4.909e-9
1.305e+1, 5.135e-9
1.308e+1, 3.964e-10
1.311e+1, -4.376e-10
1.314e+1, 4.026e-9
1.317e+1, 7.785e-8
1.320e+1, 3.286e-7
1.323e+1, 3.614e-7
1.326e+1, 4.312e-7
1.329e+1, 1.792e-7
1.332e+1, 3.967e-9
1.335e+1, 6.440e-9
1.338e+1, 5.311e-9
1.341e+1, 6.705e-9
1.344e+1, 7.352e-9
1.347e+1, 6.813e-9
1.350e+1, 5.939e-9
1.353e+1, 6.037e-9
1.356e+1, 6.763e-9
1.359e+1, 6.116e-9
1.362e+1, 6.832e-9
1.365e+1, 6.597e-9
1.368e+1, 6.126e-9
1.371e+1, 6.685e-9
1.374e+1, 4.929e-9
1.377e+1, 6.646e-9
1.380e+1, 4.198e-8
1.383e+1, 1.612e-7
1.386e+1, 3.351e-7
1.389e+1, 2.044e-7
1.392e+1, 2.762e-7
1.395e+1, 2.074e-7
1.398e+1, 3.612e-7
1.401e+1, 5.339e-7
1.404e+1, 4.711e-7
1.407e+1, 5.256e-7
1.410e+1, 1.053e-6
1.413e+1, 1.420e-6
1.416e+1, 1.711e-6
1.419e+1, 1.933e-6
1.422e+1, 2.248e-6
1.425e+1, 2.398e-6
1.428e+1, 2.463e-6
1.431e+1, 2.358e-6
1.434e+1, 2.811e-6
1.437e+1, 2.939e-6
1.440e+1, 2.398e-6
1.443e+1, 1.849e-6
1.446e+1, 1.105e-6
1.449e+1, 3.954e-7
1.452e+1, 5.646e-8
1.455e+1, 3.294e-8
1.458e+1, 8.166e-9
1.461e+1, 6.675e-9
1.464e+1, 6.724e-9
1.467e+1, 6.734e-9
1.470e+1, 6.803e-9
1.473e+1, 4.958e-9
1.476e+1, 6.400e-9
1.479e+1, 6.646e-9
1.482e+1, 3.879e-9
1.485e+1, 6.410e-9
1.488e+1, 4.693e-9
1.491e+1, 1.939e-8
1.494e+1, 3.701e-7
1.497e+1, 5.113e-7
1.500e+1, 4.817e-7
1.503e+1, 3.898e-7
1.506e+1, 5.396e-7
1.509e+1, 6.215e-7
1.512e+1, 8.756e-7
1.515e+1, 8.238e-7
1.518e+1, 9.413e-7
1.521e+1, 1.097e-6
1.524e+1, 1.370e-6
1.527e+1, 1.560e-6
1.530e+1, 1.968e-6
1.533e+1, 2.010e-6
1.536e+1, 2.111e-6
1.539e+1, 2.318e-6
1.542e+1, 2.392e-6
1.545e+1, 2.542e-6
1.548e+1, 2.594e-6
1.551e+1, 2.712e-6
1.554e+1, 2.783e-6
1.557e+1, 2.760e-6
1.560e+1, 2.734e-6
1.563e+1, 2.743e-6
1.566e+1, 2.767e-6
1.569e+1, 2.795e-6
1.572e+1, 2.812e-6
1.575e+1, 2.783e-6
1.578e+1, 2.874e-6
1.581e+1, 2.926e-6
1.584e+1, 2.915e-6
1.587e+1, 2.867e-6
1.590e+1, 2.901e-6
1.593e+1, 2.853e-6
1.596e+1, 2.799e-6
1.599e+1, 2.838e-6
1.602e+1, 2.832e-6
1.605e+1, 2.797e-6
1.608e+1, 2.817e-6
1.611e+1, 2.819e-6
1.614e+1, 2.804e-6
1.617e+1, 2.806e-6
1.620e+1, 2.802e-6
1.623e+1, 2.799e-6
1.626e+1, 2.804e-6
1.629e+1, 2.799e-6
1.632e+1, 2.797e-6
1.635e+1, 2.868e-6
1.638e+1, 2.845e-6
1.641e+1, 2.820e-6
1.644e+1, 2.807e-6
1.647e+1, 2.750e-6
1.650e+1, 2.746e-6
1.653e+1, 2.752e-6
1.656e+1, 2.793e-6
1.659e+1, 2.881e-6
1.662e+1, 3.124e-6
1.665e+1, 3.563e-6
1.668e+1, 3.613e-6
1.671e+1, 3.562e-6
1.674e+1, 3.582e-6
1.677e+1, 3.548e-6
1.680e+1, 3.548e-6
1.683e+1, 3.463e-6
1.686e+1, 3.425e-6
1.689e+1, 3.434e-6
1.692e+1, 3.433e-6
1.695e+1, 3.429e-6
1.698e+1, 3.416e-6
1.701e+1, 3.420e-6
1.704e+1, 3.405e-6
1.707e+1, 3.060e-6
1.710e+1, 3.045e-6
1.713e+1, 3.039e-6
1.716e+1, 3.043e-6
1.719e+1, 3.043e-6
1.722e+1, 3.052e-6
1.725e+1, 3.049e-6
1.728e+1, 3.052e-6
1.731e+1, 3.077e-6
1.734e+1, 3.099e-6
1.737e+1, 3.101e-6
1.740e+1, 3.605e-6
1.743e+1, 3.872e-6
1.746e+1, 3.938e-6
1.749e+1, 3.959e-6
1.752e+1, 3.944e-6
1.755e+1, 3.921e-6
1.758e+1, 3.912e-6
1.761e+1, 3.897e-6
1.764e+1, 3.814e-6
1.767e+1, 3.801e-6
1.770e+1, 3.814e-6
1.773e+1, 3.803e-6
1.776e+1, 3.796e-6
1.779e+1, 3.791e-6
1.782e+1, 3.750e-6
1.785e+1, 3.572e-6
1.788e+1, 3.555e-6
1.791e+1, 3.541e-6
1.794e+1, 3.539e-6
1.797e+1, 3.510e-6
1.800e+1, 3.182e-6
1.803e+1, 3.146e-6
1.806e+1, 3.167e-6
1.809e+1, 3.184e-6
1.812e+1, 3.171e-6
1.815e+1, 3.178e-6
1.818e+1, 3.559e-6
1.821e+1, 3.902e-6
1.824e+1, 3.978e-6
1.827e+1, 3.993e-6
1.830e+1, 3.980e-6
1.833e+1, 3.988e-6
1.836e+1, 3.987e-6
1.839e+1, 3.980e-6
1.842e+1, 3.912e-6
1.845e+1, 3.896e-6
1.848e+1, 3.931e-6
1.851e+1, 3.886e-6
1.854e+1, 3.834e-6
1.857e+1, 3.821e-6
1.860e+1, 3.819e-6
1.863e+1, 3.815e-6
1.866e+1, 3.684e-6
1.869e+1, 3.662e-6
1.872e+1, 3.566e-6
1.875e+1, 3.563e-6
1.878e+1, 3.570e-6
1.881e+1, 3.571e-6
1.884e+1, 3.244e-6
1.887e+1, 3.148e-6
1.890e+1, 3.149e-6
1.893e+1, 3.127e-6
1.896e+1, 3.106e-6
1.899e+1, 3.327e-6
1.902e+1, 3.857e-6
1.905e+1, 3.950e-6
1.908e+1, 3.936e-6
1.911e+1, 3.944e-6
1.914e+1, 3.953e-6
1.917e+1, 3.959e-6
1.920e+1, 3.961e-6
1.923e+1, 3.892e-6
1.926e+1, 3.868e-6
1.929e+1, 3.880e-6
1.932e+1, 3.887e-6
1.935e+1, 3.878e-6
1.938e+1, 3.875e-6
1.941e+1, 3.866e-6
1.944e+1, 3.856e-6
1.947e+1, 3.822e-6
1.950e+1, 3.628e-6
1.953e+1, 3.434e-6
1.956e+1, 3.283e-6
1.959e+1, 3.288e-6
1.962e+1, 3.283e-6
1.965e+1, 3.271e-6
1.968e+1, 3.259e-6
1.971e+1, 3.260e-6
1.974e+1, 3.255e-6
1.977e+1, 3.174e-6
1.980e+1, 3.142e-6
1.983e+1, 3.140e-6
1.986e+1, 3.638e-6
1.989e+1, 3.979e-6
1.992e+1, 3.975e-6
1.995e+1, 3.972e-6
1.998e+1, 3.977e-6
2.001e+1, 3.980e-6
2.004e+1, 3.974e-6
2.007e+1, 3.973e-6
2.010e+1, 3.952e-6
2.013e+1, 4.015e-6
2.016e+1, 4.038e-6
2.019e+1, 4.014e-6
2.022e+1, 3.950e-6
2.025e+1, 3.882e-6
2.028e+1, 3.863e-6
2.031e+1, 3.846e-6
2.034e+1, 3.829e-6
2.037e+1, 3.480e-6
2.040e+1, 3.272e-6
2.043e+1, 3.257e-6
2.046e+1, 3.243e-6
2.049e+1, 3.220e-6
2.052e+1, 3.231e-6
2.055e+1, 3.198e-6
2.058e+1, 3.176e-6
2.061e+1, 3.106e-6
2.064e+1, 3.082e-6
2.067e+1, 3.126e-6
2.070e+1, 3.268e-6
2.073e+1, 3.761e-6
2.076e+1, 3.868e-6
2.079e+1, 3.883e-6
2.082e+1, 3.937e-6
2.085e+1, 3.969e-6
2.088e+1, 3.940e-6
2.091e+1, 3.883e-6
2.094e+1, 3.803e-6
2.097e+1, 3.820e-6
2.100e+1, 3.808e-6
2.103e+1, 3.814e-6
2.106e+1, 3.688e-6
2.109e+1, 3.638e-6
2.112e+1, 3.606e-6
2.115e+1, 3.341e-6
2.118e+1, 3.410e-6
2.121e+1, 3.446e-6
2.124e+1, 3.277e-6
2.127e+1, 3.278e-6
2.130e+1, 3.301e-6
2.133e+1, 3.251e-6
2.136e+1, 3.198e-6
2.139e+1, 3.147e-6
2.142e+1, 3.148e-6
2.145e+1, 3.172e-6
2.148e+1, 3.563e-6
2.151e+1, 3.922e-6
2.154e+1, 4.023e-6
2.157e+1, 4.129e-6
2.160e+1, 4.152e-6
2.163e+1, 4.113e-6
2.166e+1, 4.121e-6
2.169e+1, 4.028e-6
2.172e+1, 3.901e-6
2.175e+1, 3.912e-6
2.178e+1, 3.927e-6
2.181e+1, 3.939e-6
2.184e+1, 3.838e-6
2.187e+1, 3.827e-6
2.190e+1, 3.843e-6
2.193e+1, 3.557e-6
2.196e+1, 3.529e-6
2.199e+1, 3.439e-6
2.202e+1, 3.333e-6
2.205e+1, 3.357e-6
2.208e+1, 3.370e-6
2.211e+1, 3.298e-6
2.214e+1, 3.292e-6
2.217e+1, 3.351e-6
2.220e+1, 3.349e-6
2.223e+1, 3.282e-6
2.226e+1, 3.273e-6
2.229e+1, 3.514e-6
2.232e+1, 3.963e-6
2.235e+1, 4.159e-6
2.238e+1, 4.154e-6
2.241e+1, 4.152e-6
2.244e+1, 4.170e-6
2.247e+1, 4.259e-6
2.250e+1, 4.237e-6
2.253e+1, 4.032e-6
2.256e+1, 4.015e-6
2.259e+1, 4.016e-6
2.262e+1, 4.018e-6
2.265e+1, 4.015e-6
2.268e+1, 4.016e-6
2.271e+1, 3.932e-6
2.274e+1, 3.844e-6
2.277e+1, 3.610e-6
2.280e+1, 3.588e-6
2.283e+1, 3.579e-6
2.286e+1, 3.581e-6
2.289e+1, 3.578e-6
2.292e+1, 3.580e-6
2.295e+1, 3.579e-6
2.298e+1, 3.585e-6
2.301e+1, 3.553e-6
2.304e+1, 3.299e-6
2.307e+1, 3.237e-6
2.310e+1, 3.249e-6
2.313e+1, 3.768e-6
2.316e+1, 3.986e-6
2.319e+1, 4.042e-6
2.322e+1, 4.089e-6
2.325e+1, 4.110e-6
2.328e+1, 4.119e-6
2.331e+1, 4.166e-6
2.334e+1, 4.228e-6
2.337e+1, 4.203e-6
2.340e+1, 4.197e-6
2.343e+1, 4.189e-6
2.346e+1, 4.190e-6
2.349e+1, 4.163e-6
2.352e+1, 4.083e-6
2.355e+1, 3.875e-6
2.358e+1, 3.864e-6
2.361e+1, 3.767e-6
2.364e+1, 3.745e-6
2.367e+1, 3.419e-6
2.370e+1, 3.436e-6
2.373e+1, 3.467e-6
2.376e+1, 3.458e-6
2.379e+1, 3.432e-6
2.382e+1, 3.391e-6
2.385e+1, 3.332e-6
2.388e+1, 3.288e-6
2.391e+1, 3.372e-6
2.394e+1, 3.893e-6
2.397e+1, 3.988e-6
2.400e+1, 4.042e-6
2.403e+1, 4.100e-6
2.406e+1, 4.139e-6
2.409e+1, 4.054e-6
2.412e+1, 4.059e-6
2.415e+1, 3.968e-6
2.418e+1, 3.940e-6
2.421e+1, 3.963e-6
2.424e+1, 3.924e-6
2.427e+1, 3.870e-6
2.430e+1, 3.835e-6
2.433e+1, 3.842e-6
2.436e+1, 3.834e-6
2.439e+1, 3.549e-6
2.442e+1, 3.372e-6
2.445e+1, 3.358e-6
2.448e+1, 3.323e-6
2.451e+1, 3.322e-6
2.454e+1, 3.285e-6
2.457e+1, 3.207e-6
2.460e+1, 3.205e-6
2.463e+1, 3.123e-6
2.466e+1, 3.185e-6
2.469e+1, 3.277e-6
2.472e+1, 3.919e-6
2.475e+1, 4.194e-6
2.478e+1, 4.244e-6
2.481e+1, 4.242e-6
2.484e+1, 4.212e-6
2.487e+1, 4.214e-6
2.490e+1, 4.215e-6
2.493e+1, 4.226e-6
2.496e+1, 4.201e-6
2.499e+1, 4.215e-6
2.502e+1, 4.223e-6
2.505e+1, 4.242e-6
2.508e+1, 4.161e-6
2.511e+1, 4.086e-6
2.514e+1, 4.064e-6
2.517e+1, 4.027e-6
2.520e+1, 4.012e-6
2.523e+1, 3.621e-6
2.526e+1, 3.562e-6
2.529e+1, 3.566e-6
2.532e+1, 3.546e-6
2.535e+1, 3.532e-6
2.538e+1, 3.516e-6
2.541e+1, 3.462e-6
2.544e+1, 3.421e-6
2.547e+1, 3.334e-6
2.550e+1, 3.328e-6
2.553e+1, 3.507e-6
2.556e+1, 4.082e-6
2.559e+1, 4.334e-6
2.562e+1, 4.348e-6
2.565e+1, 4.344e-6
2.568e+1, 4.331e-6
2.571e+1, 4.332e-6
2.574e+1, 4.333e-6
2.577e+1, 4.323e-6
2.580e+1, 4.318e-6
2.583e+1, 4.339e-6
2.586e+1, 4.313e-6
2.589e+1, 4.244e-6
2.592e+1, 4.154e-6
2.595e+1, 4.064e-6
2.598e+1, 4.046e-6
2.601e+1, 4.038e-6
2.604e+1, 3.890e-6
2.607e+1, 3.868e-6
2.610e+1, 3.865e-6
2.613e+1, 3.592e-6
2.616e+1, 3.516e-6
2.619e+1, 3.484e-6
2.622e+1, 3.452e-6
2.625e+1, 3.468e-6
2.628e+1, 3.450e-6
2.631e+1, 3.410e-6
2.634e+1, 3.315e-6
2.637e+1, 3.272e-6
2.640e+1, 3.241e-6
2.643e+1, 3.321e-6
2.646e+1, 3.709e-6
2.649e+1, 4.099e-6
2.652e+1, 4.282e-6
2.655e+1, 4.341e-6
2.658e+1, 4.334e-6
2.661e+1, 4.297e-6
2.664e+1, 4.287e-6
2.667e+1, 4.286e-6
2.670e+1, 4.196e-6
2.673e+1, 4.086e-6
2.676e+1, 4.109e-6
2.679e+1, 4.070e-6
2.682e+1, 4.024e-6
2.685e+1, 4.020e-6
2.688e+1, 4.011e-6
2.691e+1, 3.991e-6
2.694e+1, 3.989e-6
2.697e+1, 3.956e-6
2.700e+1, 3.640e-6
2.703e+1, 3.628e-6
2.706e+1, 3.628e-6
2.709e+1, 3.501e-6
2.712e+1, 3.406e-6
2.715e+1, 3.383e-6
2.718e+1, 3.335e-6
2.721e+1, 3.327e-6
2.724e+1, 3.355e-6
2.727e+1, 3.379e-6
2.730e+1, 3.336e-6
2.733e+1, 3.559e-6
2.736e+1, 3.858e-6
2.739e+1, 3.963e-6
2.742e+1, 4.038e-6
2.745e+1, 4.048e-6
2.748e+1, 3.971e-6
2.751e+1, 3.898e-6
2.754e+1, 3.902e-6
2.757e+1, 3.802e-6
2.760e+1, 3.816e-6
2.763e+1, 3.820e-6
2.766e+1, 3.822e-6
2.769e+1, 3.783e-6
2.772e+1, 3.661e-6
2.775e+1, 3.629e-6
2.778e+1, 3.457e-6
2.781e+1, 3.257e-6
2.784e+1, 3.137e-6
2.787e+1, 3.151e-6
2.790e+1, 3.169e-6
2.793e+1, 3.161e-6
2.796e+1, 3.148e-6
2.799e+1, 3.147e-6
2.802e+1, 3.138e-6
2.805e+1, 3.140e-6
2.808e+1, 3.149e-6
2.811e+1, 3.077e-6
2.814e+1, 3.076e-6
2.817e+1, 3.151e-6
2.820e+1, 3.594e-6
2.823e+1, 3.916e-6
2.826e+1, 3.936e-6
2.829e+1, 3.927e-6
2.832e+1, 3.916e-6
2.835e+1, 3.930e-6
2.838e+1, 3.898e-6
2.841e+1, 3.801e-6
2.844e+1, 3.704e-6
2.847e+1, 3.740e-6
2.850e+1, 3.824e-6
2.853e+1, 3.877e-6
2.856e+1, 3.867e-6
2.859e+1, 3.845e-6
2.862e+1, 3.573e-6
2.865e+1, 3.552e-6
2.868e+1, 3.557e-6
2.871e+1, 3.554e-6
2.874e+1, 3.412e-6
2.877e+1, 3.419e-6
2.880e+1, 3.383e-6
2.883e+1, 3.340e-6
2.886e+1, 3.202e-6
2.889e+1, 3.254e-6
2.892e+1, 3.343e-6
2.895e+1, 3.386e-6
2.898e+1, 3.397e-6
2.901e+1, 3.396e-6
2.904e+1, 3.889e-6
2.907e+1, 4.119e-6
2.910e+1, 4.137e-6
2.913e+1, 4.124e-6
2.916e+1, 4.134e-6
2.919e+1, 4.134e-6
2.922e+1, 4.103e-6
2.925e+1, 4.066e-6
2.928e+1, 4.046e-6
2.931e+1, 4.041e-6
2.934e+1, 4.085e-6
2.937e+1, 4.130e-6
2.940e+1, 4.152e-6
2.943e+1, 4.133e-6
2.946e+1, 4.070e-6
2.949e+1, 4.064e-6
2.952e+1, 4.057e-6
2.955e+1, 3.955e-6
2.958e+1, 3.971e-6
2.961e+1, 3.978e-6
2.964e+1, 3.998e-6
2.967e+1, 3.988e-6
2.970e+1, 3.995e-6
2.973e+1, 4.001e-6
2.976e+1, 3.999e-6
2.979e+1, 4.001e-6
2.982e+1, 4.008e-6
2.985e+1, 3.739e-6
2.988e+1, 3.611e-6
2.991e+1, 3.993e-6
2.994e+1, 4.240e-6
2.997e+1, 4.223e-6
3.000e+1, 4.207e-6
3.003e+1, 4.195e-6
3.006e+1, 4.100e-6
3.009e+1, 4.081e-6
3.012e+1, 4.093e-6
3.015e+1, 4.096e-6
3.018e+1, 4.115e-6
3.021e+1, 4.138e-6
3.024e+1, 4.142e-6
3.027e+1, 4.134e-6
3.030e+1, 4.132e-6
3.033e+1, 4.120e-6
3.036e+1, 4.119e-6
3.039e+1, 4.059e-6
3.042e+1, 4.047e-6
3.045e+1, 3.934e-6
3.048e+1, 3.914e-6
3.051e+1, 3.931e-6
3.054e+1, 3.947e-6
3.057e+1, 3.958e-6
3.060e+1, 3.962e-6
3.063e+1, 3.959e-6
3.066e+1, 3.964e-6
3.069e+1, 3.983e-6
3.072e+1, 4.020e-6
3.075e+1, 3.952e-6
3.078e+1, 3.883e-6
3.081e+1, 4.045e-6
3.084e+1, 4.109e-6
3.087e+1, 4.129e-6
3.090e+1, 4.206e-6
3.093e+1, 4.277e-6
3.096e+1, 4.271e-6
3.099e+1, 4.236e-6
3.102e+1, 4.260e-6
3.105e+1, 4.280e-6
3.108e+1, 4.294e-6
3.111e+1, 4.304e-6
3.114e+1, 4.287e-6
3.117e+1, 4.199e-6
3.120e+1, 4.157e-6
3.123e+1, 4.069e-6
3.126e+1, 4.051e-6
3.129e+1, 4.052e-6
3.132e+1, 3.989e-6
3.135e+1, 3.906e-6
3.138e+1, 3.915e-6
3.141e+1, 3.916e-6
3.144e+1, 3.920e-6
3.147e+1, 3.914e-6
3.150e+1, 3.876e-6
3.153e+1, 3.884e-6
3.156e+1, 3.867e-6
3.159e+1, 3.825e-6
3.162e+1, 3.460e-6
3.165e+1, 3.483e-6
3.168e+1, 3.879e-6
3.171e+1, 4.106e-6
3.174e+1, 4.169e-6
3.177e+1, 4.196e-6
3.180e+1, 4.196e-6
3.183e+1, 4.191e-6
3.186e+1, 4.190e-6
3.189e+1, 4.222e-6
3.192e+1, 4.159e-6
3.195e+1, 4.192e-6
3.198e+1, 4.197e-6
3.201e+1, 4.206e-6
3.204e+1, 4.197e-6
3.207e+1, 4.166e-6
3.210e+1, 4.120e-6
3.213e+1, 4.127e-6
3.216e+1, 4.124e-6
3.219e+1, 4.071e-6
3.222e+1, 4.021e-6
3.225e+1, 3.993e-6
3.228e+1, 3.974e-6
3.231e+1, 3.967e-6
3.234e+1, 3.959e-6
3.237e+1, 3.964e-6
3.240e+1, 3.999e-6
3.243e+1, 4.007e-6
3.246e+1, 3.998e-6
3.249e+1, 3.970e-6
3.252e+1, 3.981e-6
3.255e+1, 4.040e-6
3.258e+1, 4.205e-6
3.261e+1, 4.249e-6
3.264e+1, 4.265e-6
3.267e+1, 4.272e-6
3.270e+1, 4.280e-6
3.273e+1, 4.277e-6
3.276e+1, 4.300e-6
3.279e+1, 4.270e-6
3.282e+1, 4.256e-6
3.285e+1, 4.271e-6
3.288e+1, 4.280e-6
3.291e+1, 4.295e-6
3.294e+1, 4.298e-6
3.297e+1, 4.228e-6
3.300e+1, 4.210e-6
3.303e+1, 4.215e-6
3.306e+1, 4.215e-6
3.309e+1, 4.199e-6
3.312e+1, 4.190e-6
3.315e+1, 4.155e-6
3.318e+1, 4.158e-6
3.321e+1, 4.103e-6
3.324e+1, 4.061e-6
3.327e+1, 4.063e-6
3.330e+1, 4.059e-6
3.333e+1, 4.055e-6
3.336e+1, 4.020e-6
3.339e+1, 4.040e-6
3.342e+1, 4.098e-6
3.345e+1, 4.306e-6
3.348e+1, 4.323e-6
3.351e+1, 4.333e-6
3.354e+1, 4.349e-6
3.357e+1, 4.352e-6
3.360e+1, 4.345e-6
3.363e+1, 4.342e-6
3.366e+1, 4.327e-6
3.369e+1, 4.300e-6
3.372e+1, 4.310e-6
3.375e+1, 4.312e-6
3.378e+1, 4.303e-6
3.381e+1, 4.308e-6
3.384e+1, 4.273e-6
3.387e+1, 4.248e-6
3.390e+1, 4.261e-6
3.393e+1, 4.233e-6
3.396e+1, 4.224e-6
3.399e+1, 4.203e-6
3.402e+1, 4.191e-6
3.405e+1, 4.189e-6
3.408e+1, 4.176e-6
3.411e+1, 4.121e-6
3.414e+1, 4.136e-6
3.417e+1, 4.140e-6
3.420e+1, 4.159e-6
3.423e+1, 4.173e-6
3.426e+1, 4.178e-6
3.429e+1, 4.327e-6
3.432e+1, 4.398e-6
3.435e+1, 4.399e-6
3.438e+1, 4.394e-6
3.441e+1, 4.393e-6
3.444e+1, 4.385e-6
3.447e+1, 4.376e-6
3.450e+1, 4.370e-6
3.453e+1, 4.363e-6
3.456e+1, 4.371e-6
3.459e+1, 4.373e-6
3.462e+1, 4.378e-6
3.465e+1, 4.372e-6
3.468e+1, 4.351e-6
3.471e+1, 4.354e-6
3.474e+1, 4.349e-6
3.477e+1, 4.267e-6
3.480e+1, 4.269e-6
3.483e+1, 4.271e-6
3.486e+1, 4.269e-6
3.489e+1, 4.268e-6
3.492e+1, 4.284e-6
3.495e+1, 4.296e-6
3.498e+1, 4.303e-6
3.501e+1, 4.286e-6
3.504e+1, 4.270e-6
3.507e+1, 4.253e-6
3.510e+1, 4.233e-6
3.513e+1, 4.218e-6
3.516e+1, 4.317e-6
3.519e+1, 4.332e-6
3.522e+1, 4.365e-6
3.525e+1, 4.399e-6
3.528e+1, 4.410e-6
3.531e+1, 4.326e-6
3.534e+1, 4.205e-6
3.537e+1, 4.160e-6
3.540e+1, 4.114e-6
3.543e+1, 4.122e-6
3.546e+1, 4.120e-6
3.549e+1, 4.130e-6
3.552e+1, 4.137e-6
3.555e+1, 4.113e-6
3.558e+1, 4.016e-6
3.561e+1, 4.010e-6
3.564e+1, 4.025e-6
3.567e+1, 4.031e-6
3.570e+1, 4.032e-6
3.573e+1, 4.032e-6
3.576e+1, 4.042e-6
3.579e+1, 4.043e-6
3.582e+1, 4.009e-6
3.585e+1, 3.987e-6
3.588e+1, 3.874e-6
3.591e+1, 3.841e-6
3.594e+1, 3.845e-6
3.597e+1, 3.934e-6
3.600e+1, 4.129e-6
3.603e+1, 4.148e-6
3.606e+1, 4.157e-6
3.609e+1, 4.155e-6
3.612e+1, 4.138e-6
3.615e+1, 4.140e-6
3.618e+1, 4.128e-6
3.621e+1, 4.014e-6
3.624e+1, 3.994e-6
3.627e+1, 4.035e-6
3.630e+1, 4.055e-6
3.633e+1, 4.042e-6
3.636e+1, 4.023e-6
3.639e+1, 3.992e-6
3.642e+1, 3.983e-6
3.645e+1, 3.967e-6
3.648e+1, 3.952e-6
3.651e+1, 3.945e-6
3.654e+1, 3.891e-6
3.657e+1, 3.896e-6
3.660e+1, 3.911e-6
3.663e+1, 3.958e-6
3.666e+1, 3.928e-6
3.669e+1, 3.919e-6
3.672e+1, 3.688e-6
3.675e+1, 3.601e-6
3.678e+1, 3.777e-6
3.681e+1, 4.126e-6
3.684e+1, 4.246e-6
3.687e+1, 4.372e-6
3.690e+1, 4.373e-6
3.693e+1, 4.333e-6
3.696e+1, 4.345e-6
3.699e+1, 4.348e-6
3.702e+1, 4.346e-6
3.705e+1, 4.311e-6
3.708e+1, 4.348e-6
3.711e+1, 4.338e-6
3.714e+1, 4.380e-6
3.717e+1, 4.425e-6
3.720e+1, 4.321e-6
3.723e+1, 4.322e-6
3.726e+1, 4.299e-6
3.729e+1, 4.245e-6
3.732e+1, 4.240e-6
3.735e+1, 4.234e-6
3.738e+1, 4.230e-6
3.741e+1, 4.144e-6
3.744e+1, 4.096e-6
3.747e+1, 4.093e-6
3.750e+1, 3.984e-6
3.753e+1, 3.963e-6
3.756e+1, 3.941e-6
3.759e+1, 3.966e-6
3.762e+1, 4.241e-6
3.765e+1, 4.429e-6
3.768e+1, 4.470e-6
3.771e+1, 4.468e-6
3.774e+1, 4.459e-6
3.777e+1, 4.438e-6
3.780e+1, 4.454e-6
3.783e+1, 4.440e-6
3.786e+1, 4.374e-6
3.789e+1, 4.419e-6
3.792e+1, 4.431e-6
3.795e+1, 4.404e-6
3.798e+1, 4.318e-6
3.801e+1, 4.299e-6
3.804e+1, 4.285e-6
3.807e+1, 4.254e-6
3.810e+1, 4.233e-6
3.813e+1, 4.159e-6
3.816e+1, 4.145e-6
3.819e+1, 4.148e-6
3.822e+1, 4.136e-6
3.825e+1, 4.126e-6
3.828e+1, 4.121e-6
3.831e+1, 3.961e-6
3.834e+1, 3.880e-6
3.837e+1, 3.869e-6
3.840e+1, 3.725e-6
3.843e+1, 3.739e-6
3.846e+1, 4.182e-6
3.849e+1, 4.410e-6
3.852e+1, 4.466e-6
3.855e+1, 4.494e-6
3.858e+1, 4.493e-6
3.861e+1, 4.502e-6
3.864e+1, 4.520e-6
3.867e+1, 4.526e-6
3.870e+1, 4.445e-6
3.873e+1, 4.452e-6
3.876e+1, 4.449e-6
3.879e+1, 4.454e-6
3.882e+1, 4.392e-6
3.885e+1, 4.369e-6
3.888e+1, 4.330e-6
3.891e+1, 4.316e-6
3.894e+1, 4.325e-6
3.897e+1, 4.335e-6
3.900e+1, 4.318e-6
3.903e+1, 4.316e-6
3.906e+1, 4.313e-6
3.909e+1, 4.306e-6
3.912e+1, 4.223e-6
3.915e+1, 4.195e-6
3.918e+1, 4.169e-6
3.921e+1, 4.135e-6
3.924e+1, 4.169e-6
3.927e+1, 4.225e-6
3.930e+1, 4.378e-6
3.933e+1, 4.457e-6
3.936e+1, 4.523e-6
3.939e+1, 4.560e-6
3.942e+1, 4.489e-6
3.945e+1, 4.466e-6
3.948e+1, 4.429e-6
3.951e+1, 4.385e-6
3.954e+1, 4.321e-6
3.957e+1, 4.331e-6
3.960e+1, 4.336e-6
3.963e+1, 4.360e-6
3.966e+1, 4.296e-6
3.969e+1, 4.252e-6
3.972e+1, 4.178e-6
3.975e+1, 4.143e-6
3.978e+1, 4.129e-6
3.981e+1, 4.140e-6
3.984e+1, 4.131e-6
3.987e+1, 4.132e-6
3.990e+1, 4.143e-6
3.993e+1, 4.159e-6
3.996e+1, 4.169e-6
3.999e+1, 4.051e-6
4.002e+1, 4.019e-6
4.005e+1, 4.017e-6
4.008e+1, 4.201e-6
4.011e+1, 4.395e-6
4.014e+1, 4.502e-6
4.017e+1, 4.493e-6
4.020e+1, 4.442e-6
4.023e+1, 4.326e-6
4.026e+1, 4.229e-6
4.029e+1, 4.235e-6
4.032e+1, 4.200e-6
4.035e+1, 4.213e-6
4.038e+1, 4.258e-6
4.041e+1, 4.261e-6
4.044e+1, 4.177e-6
4.047e+1, 4.165e-6
4.050e+1, 4.132e-6
4.053e+1, 4.128e-6
4.056e+1, 4.096e-6
4.059e+1, 4.105e-6
4.062e+1, 4.055e-6
4.065e+1, 4.039e-6
4.068e+1, 4.041e-6
4.071e+1, 4.035e-6
4.074e+1, 4.008e-6
4.077e+1, 3.980e-6
4.080e+1, 4.001e-6
4.083e+1, 4.167e-6
4.086e+1, 4.399e-6
4.089e+1, 4.541e-6
4.092e+1, 4.547e-6
4.095e+1, 4.548e-6
4.098e+1, 4.546e-6
4.101e+1, 4.533e-6
4.104e+1, 4.440e-6
4.107e+1, 4.225e-6
4.110e+1, 4.211e-6
4.113e+1, 4.228e-6
4.116e+1, 4.232e-6
4.119e+1, 4.205e-6
4.122e+1, 4.184e-6
4.125e+1, 4.167e-6
4.128e+1, 4.173e-6
4.131e+1, 4.106e-6
4.134e+1, 4.096e-6
4.137e+1, 4.096e-6
4.140e+1, 4.096e-6
4.143e+1, 4.079e-6
4.146e+1, 4.068e-6
4.149e+1, 4.064e-6
4.152e+1, 4.025e-6
4.155e+1, 3.983e-6
4.158e+1, 4.024e-6
4.161e+1, 4.260e-6
4.164e+1, 4.476e-6
4.167e+1, 4.480e-6
4.170e+1, 4.492e-6
4.173e+1, 4.509e-6
4.176e+1, 4.547e-6
4.179e+1, 4.567e-6
4.182e+1, 4.563e-6
4.185e+1, 4.467e-6
4.188e+1, 4.534e-6
4.191e+1, 4.545e-6
4.194e+1, 4.543e-6
4.197e+1, 4.429e-6
4.200e+1, 4.351e-6
4.203e+1, 4.253e-6
4.206e+1, 4.205e-6
4.209e+1, 4.190e-6
4.212e+1, 4.177e-6
4.215e+1, 4.164e-6
4.218e+1, 4.162e-6
4.221e+1, 4.118e-6
4.224e+1, 4.067e-6
4.227e+1, 4.049e-6
4.230e+1, 4.058e-6
4.233e+1, 4.008e-6
4.236e+1, 4.027e-6
4.239e+1, 4.086e-6
4.242e+1, 4.380e-6
4.245e+1, 4.484e-6
4.248e+1, 4.476e-6
4.251e+1, 4.497e-6
4.254e+1, 4.508e-6
4.257e+1, 4.560e-6
4.260e+1, 4.587e-6
4.263e+1, 4.538e-6
4.266e+1, 4.418e-6
4.269e+1, 4.426e-6
4.272e+1, 4.405e-6
4.275e+1, 4.392e-6
4.278e+1, 4.364e-6
4.281e+1, 4.280e-6
4.284e+1, 4.257e-6
4.287e+1, 4.224e-6
4.290e+1, 4.176e-6
4.293e+1, 4.158e-6
4.296e+1, 4.062e-6
4.299e+1, 4.054e-6
4.302e+1, 4.069e-6
4.305e+1, 4.057e-6
4.308e+1, 4.049e-6
4.311e+1, 4.040e-6
4.314e+1, 4.029e-6
4.317e+1, 4.058e-6
4.320e+1, 4.275e-6
4.323e+1, 4.489e-6
4.326e+1, 4.581e-6
4.329e+1, 4.588e-6
4.332e+1, 4.597e-6
4.335e+1, 4.593e-6
4.338e+1, 4.630e-6
4.341e+1, 4.664e-6
4.344e+1, 4.572e-6
4.347e+1, 4.574e-6
4.350e+1, 4.578e-6
4.353e+1, 4.572e-6
4.356e+1, 4.508e-6
4.359e+1, 4.375e-6
4.362e+1, 4.304e-6
4.365e+1, 4.278e-6
4.368e+1, 4.205e-6
4.371e+1, 4.197e-6
4.374e+1, 4.203e-6
4.377e+1, 4.185e-6
4.380e+1, 4.185e-6
4.383e+1, 4.177e-6
4.386e+1, 4.085e-6
4.389e+1, 4.072e-6
4.392e+1, 4.034e-6
4.395e+1, 4.001e-6
4.398e+1, 4.002e-6
4.401e+1, 4.115e-6
4.404e+1, 4.429e-6
4.407e+1, 4.588e-6
4.410e+1, 4.616e-6
4.413e+1, 4.595e-6
4.416e+1, 4.558e-6
4.419e+1, 4.568e-6
4.422e+1, 4.466e-6
4.425e+1, 4.322e-6
4.428e+1, 4.329e-6
4.431e+1, 4.373e-6
4.434e+1, 4.484e-6
4.437e+1, 4.468e-6
4.440e+1, 4.397e-6
4.443e+1, 4.389e-6
4.446e+1, 4.388e-6
4.449e+1, 4.344e-6
4.452e+1, 4.216e-6
4.455e+1, 4.197e-6
4.458e+1, 4.196e-6
4.461e+1, 4.166e-6
4.464e+1, 4.125e-6
4.467e+1, 4.103e-6
4.470e+1, 4.041e-6
4.473e+1, 3.950e-6
4.476e+1, 3.975e-6
4.479e+1, 4.136e-6
4.482e+1, 4.449e-6
4.485e+1, 4.565e-6
4.488e+1, 4.608e-6
4.491e+1, 4.558e-6
4.494e+1, 4.509e-6
4.497e+1, 4.508e-6
4.500e+1, 4.494e-6
4.503e+1, 4.400e-6
4.506e+1, 4.435e-6
4.509e+1, 4.491e-6
4.512e+1, 4.418e-6
4.515e+1, 4.431e-6
4.518e+1, 4.404e-6
4.521e+1, 4.353e-6
4.524e+1, 4.134e-6
4.527e+1, 4.072e-6
4.530e+1, 4.012e-6
4.533e+1, 3.985e-6
4.536e+1, 3.967e-6
4.539e+1, 3.956e-6
4.542e+1, 3.938e-6
4.545e+1, 3.874e-6
4.548e+1, 3.655e-6
4.551e+1, 3.708e-6
4.554e+1, 3.921e-6
4.557e+1, 4.419e-6
4.560e+1, 4.614e-6
4.563e+1, 4.643e-6
4.566e+1, 4.621e-6
4.569e+1, 4.643e-6
4.572e+1, 4.620e-6
4.575e+1, 4.607e-6
4.578e+1, 4.555e-6
4.581e+1, 4.456e-6
4.584e+1, 4.499e-6
4.587e+1, 4.477e-6
4.590e+1, 4.432e-6
4.593e+1, 4.397e-6
4.596e+1, 4.370e-6
4.599e+1, 4.268e-6
4.602e+1, 4.121e-6
4.605e+1, 4.015e-6
4.608e+1, 4.009e-6
4.611e+1, 3.919e-6
4.614e+1, 3.890e-6
4.617e+1, 3.851e-6
4.620e+1, 3.840e-6
4.623e+1, 3.821e-6
4.626e+1, 3.809e-6
4.629e+1, 3.777e-6
4.632e+1, 3.801e-6
4.635e+1, 4.098e-6
4.638e+1, 4.579e-6
4.641e+1, 4.644e-6
4.644e+1, 4.649e-6
4.647e+1, 4.654e-6
4.650e+1, 4.671e-6
4.653e+1, 4.681e-6
4.656e+1, 4.658e-6
4.659e+1, 4.465e-6
4.662e+1, 4.488e-6
4.665e+1, 4.480e-6
4.668e+1, 4.473e-6
4.671e+1, 4.434e-6
4.674e+1, 4.400e-6
4.677e+1, 4.319e-6
4.680e+1, 4.245e-6
4.683e+1, 4.186e-6
4.686e+1, 4.114e-6
4.689e+1, 4.039e-6
4.692e+1, 3.998e-6
4.695e+1, 3.984e-6
4.698e+1, 3.955e-6
4.701e+1, 3.880e-6
4.704e+1, 3.858e-6
4.707e+1, 3.854e-6
4.710e+1, 3.788e-6
4.713e+1, 3.798e-6
4.716e+1, 3.942e-6
4.719e+1, 4.309e-6
4.722e+1, 4.580e-6
4.725e+1, 4.632e-6
4.728e+1, 4.702e-6
4.731e+1, 4.700e-6
4.734e+1, 4.690e-6
4.737e+1, 4.682e-6
4.740e+1, 4.532e-6
4.743e+1, 4.432e-6
4.746e+1, 4.442e-6
4.749e+1, 4.462e-6
4.752e+1, 4.470e-6
4.755e+1, 4.428e-6
4.758e+1, 4.417e-6
4.761e+1, 4.294e-6
4.764e+1, 4.236e-6
4.767e+1, 4.222e-6
4.770e+1, 4.212e-6
4.773e+1, 4.219e-6
4.776e+1, 4.202e-6
4.779e+1, 4.178e-6
4.782e+1, 4.125e-6
4.785e+1, 4.115e-6
4.788e+1, 4.074e-6
4.791e+1, 4.042e-6
4.794e+1, 4.029e-6
4.797e+1, 4.205e-6
4.800e+1, 4.514e-6
4.803e+1, 4.560e-6
4.806e+1, 4.550e-6
4.809e+1, 4.477e-6
4.812e+1, 4.488e-6
4.815e+1, 4.486e-6
4.818e+1, 4.455e-6
4.821e+1, 4.329e-6
4.824e+1, 4.350e-6
4.827e+1, 4.400e-6
4.830e+1, 4.419e-6
4.833e+1, 4.381e-6
4.836e+1, 4.331e-6
4.839e+1, 4.278e-6
4.842e+1, 4.186e-6
4.845e+1, 4.151e-6
4.848e+1, 4.148e-6
4.851e+1, 4.155e-6
4.854e+1, 4.134e-6
4.857e+1, 4.100e-6
4.860e+1, 4.096e-6
4.863e+1, 4.024e-6
4.866e+1, 3.787e-6
4.869e+1, 3.810e-6
4.872e+1, 3.914e-6
4.875e+1, 4.280e-6
4.878e+1, 4.590e-6
4.881e+1, 4.616e-6
4.884e+1, 4.571e-6
4.887e+1, 4.569e-6
4.890e+1, 4.564e-6
4.893e+1, 4.441e-6
4.896e+1, 4.267e-6
4.899e+1, 4.248e-6
4.902e+1, 4.428e-6
4.905e+1, 4.456e-6
4.908e+1, 4.433e-6
4.911e+1, 4.266e-6
4.914e+1, 4.214e-6
4.917e+1, 4.178e-6
4.920e+1, 4.115e-6
4.923e+1, 4.056e-6
4.926e+1, 4.052e-6
4.929e+1, 4.050e-6
4.932e+1, 4.053e-6
4.935e+1, 4.043e-6
4.938e+1, 4.005e-6
4.941e+1, 3.820e-6
4.944e+1, 3.677e-6
4.947e+1, 3.609e-6
4.950e+1, 3.687e-6
4.953e+1, 3.969e-6
4.956e+1, 4.414e-6
4.959e+1, 4.652e-6
4.962e+1, 4.670e-6
4.965e+1, 4.657e-6
4.968e+1, 4.650e-6
4.971e+1, 4.651e-6
4.974e+1, 4.646e-6
4.977e+1, 4.471e-6
4.980e+1, 4.427e-6
4.983e+1, 4.486e-6
4.986e+1, 4.509e-6
4.989e+1, 4.496e-6
4.992e+1, 4.427e-6
4.995e+1, 4.317e-6
4.998e+1, 4.259e-6
5.001e+1, 4.183e-6
5.004e+1, 4.147e-6
5.007e+1, 4.121e-6
5.010e+1, 4.105e-6
5.013e+1, 4.057e-6
5.016e+1, 3.982e-6
5.019e+1, 3.930e-6
5.022e+1, 3.970e-6
5.025e+1, 3.970e-6
5.028e+1, 3.822e-6
5.031e+1, 3.785e-6
5.034e+1, 3.945e-6
5.037e+1, 4.294e-6
5.040e+1, 4.661e-6
5.043e+1, 4.729e-6
5.046e+1, 4.721e-6
5.049e+1, 4.693e-6
5.052e+1, 4.672e-6
5.055e+1, 4.670e-6
5.058e+1, 4.525e-6
5.061e+1, 4.333e-6
5.064e+1, 4.351e-6
5.067e+1, 4.468e-6
5.070e+1, 4.449e-6
5.073e+1, 4.339e-6
5.076e+1, 4.241e-6
5.079e+1, 4.173e-6
5.082e+1, 4.154e-6
5.085e+1, 4.111e-6
5.088e+1, 4.048e-6
5.091e+1, 4.003e-6
5.094e+1, 3.946e-6
5.097e+1, 3.861e-6
5.100e+1, 3.727e-6
5.103e+1, 3.735e-6
5.106e+1, 3.702e-6
5.109e+1, 3.608e-6
5.112e+1, 3.507e-6
5.115e+1, 3.529e-6
5.118e+1, 3.976e-6
5.121e+1, 4.455e-6
5.124e+1, 4.663e-6
5.127e+1, 4.661e-6
5.130e+1, 4.556e-6
5.133e+1, 4.590e-6
5.136e+1, 4.583e-6
5.139e+1, 4.494e-6
5.142e+1, 4.238e-6
5.145e+1, 4.278e-6
5.148e+1, 4.242e-6
5.151e+1, 4.195e-6
5.154e+1, 4.187e-6
5.157e+1, 4.145e-6
5.160e+1, 4.126e-6
5.163e+1, 4.131e-6
5.166e+1, 4.086e-6
5.169e+1, 4.010e-6
5.172e+1, 3.996e-6
5.175e+1, 3.969e-6
5.178e+1, 3.891e-6
5.181e+1, 3.872e-6
5.184e+1, 3.851e-6
5.187e+1, 3.826e-6
5.190e+1, 3.751e-6
5.193e+1, 3.727e-6
5.196e+1, 3.831e-6
5.199e+1, 3.992e-6
5.202e+1, 4.051e-6
5.205e+1, 4.175e-6
5.208e+1, 4.155e-6
5.211e+1, 4.144e-6
5.214e+1, 4.099e-6
5.217e+1, 4.010e-6
5.220e+1, 3.930e-6
5.223e+1, 3.941e-6
5.226e+1, 3.945e-6
5.229e+1, 3.899e-6
5.232e+1, 3.855e-6
5.235e+1, 3.806e-6
5.238e+1, 3.691e-6
5.241e+1, 3.653e-6
5.244e+1, 3.679e-6
5.247e+1, 3.688e-6
5.250e+1, 3.638e-6
5.253e+1, 3.480e-6
5.256e+1, 3.446e-6
5.259e+1, 3.484e-6
5.262e+1, 3.384e-6
5.265e+1, 3.319e-6
5.268e+1, 3.328e-6
5.271e+1, 3.585e-6
5.274e+1, 3.810e-6
5.277e+1, 3.962e-6
5.280e+1, 3.998e-6
5.283e+1, 3.934e-6
5.286e+1, 3.939e-6
5.289e+1, 3.939e-6
5.292e+1, 3.903e-6
5.295e+1, 3.799e-6
5.298e+1, 3.824e-6
5.301e+1, 3.809e-6
5.304e+1, 3.783e-6
5.307e+1, 3.786e-6
5.310e+1, 3.727e-6
5.313e+1, 3.635e-6
5.316e+1, 3.621e-6
5.319e+1, 3.538e-6
5.322e+1, 3.408e-6
5.325e+1, 3.342e-6
5.328e+1, 3.339e-6
5.331e+1, 3.340e-6
5.334e+1, 3.322e-6
5.337e+1, 3.320e-6
5.340e+1, 3.281e-6
5.343e+1, 3.271e-6
5.346e+1, 3.323e-6
5.349e+1, 3.808e-6
5.352e+1, 3.940e-6
5.355e+1, 4.027e-6
5.358e+1, 4.033e-6
5.361e+1, 3.964e-6
5.364e+1, 3.977e-6
5.367e+1, 3.990e-6
5.370e+1, 3.942e-6
5.373e+1, 3.803e-6
5.376e+1, 3.822e-6
5.379e+1, 3.851e-6
5.382e+1, 3.825e-6
5.385e+1, 3.751e-6
5.388e+1, 3.764e-6
5.391e+1, 3.691e-6
5.394e+1, 3.583e-6
5.397e+1, 3.504e-6
5.400e+1, 3.360e-6
5.403e+1, 3.306e-6
5.406e+1, 3.295e-6
5.409e+1, 3.259e-6
5.412e+1, 3.258e-6
5.415e+1, 3.230e-6
5.418e+1, 3.196e-6
5.421e+1, 3.239e-6
5.424e+1, 3.297e-6
5.427e+1, 3.702e-6
5.430e+1, 3.947e-6
5.433e+1, 4.032e-6
5.436e+1, 4.041e-6
5.439e+1, 4.053e-6
5.442e+1, 4.074e-6
5.445e+1, 4.065e-6
5.448e+1, 3.928e-6
5.451e+1, 3.868e-6
5.454e+1, 3.888e-6
5.457e+1, 3.888e-6
5.460e+1, 3.844e-6
5.463e+1, 3.792e-6
5.466e+1, 3.717e-6
5.469e+1, 3.662e-6
5.472e+1, 3.537e-6
5.475e+1, 3.508e-6
5.478e+1, 3.504e-6
5.481e+1, 3.498e-6
5.484e+1, 3.483e-6
5.487e+1, 3.324e-6
5.490e+1, 3.316e-6
5.493e+1, 3.310e-6
5.496e+1, 3.267e-6
5.499e+1, 3.158e-6
5.502e+1, 3.157e-6
5.505e+1, 3.453e-6
5.508e+1, 3.866e-6
5.511e+1, 4.030e-6
5.514e+1, 4.081e-6
5.517e+1, 4.130e-6
5.520e+1, 4.150e-6
5.523e+1, 4.189e-6
5.526e+1, 4.200e-6
5.529e+1, 4.041e-6
5.532e+1, 4.023e-6
5.535e+1, 4.022e-6
5.538e+1, 4.034e-6
5.541e+1, 4.042e-6
5.544e+1, 4.019e-6
5.547e+1, 3.985e-6
5.550e+1, 3.949e-6
5.553e+1, 3.885e-6
5.556e+1, 3.834e-6
5.559e+1, 3.756e-6
5.562e+1, 3.715e-6
5.565e+1, 3.660e-6
5.568e+1, 3.643e-6
5.571e+1, 3.579e-6
5.574e+1, 3.531e-6
5.577e+1, 3.474e-6
5.580e+1, 3.467e-6
5.583e+1, 3.612e-6
5.586e+1, 3.874e-6
5.589e+1, 3.977e-6
5.592e+1, 3.943e-6
5.595e+1, 3.952e-6
5.598e+1, 3.945e-6
5.601e+1, 3.941e-6
5.604e+1, 3.952e-6
5.607e+1, 3.797e-6
5.610e+1, 3.826e-6
5.613e+1, 3.863e-6
5.616e+1, 3.837e-6
5.619e+1, 3.778e-6
5.622e+1, 3.686e-6
5.625e+1, 3.520e-6
5.628e+1, 3.480e-6
5.631e+1, 3.478e-6
5.634e+1, 3.346e-6
5.637e+1, 3.271e-6
5.640e+1, 3.277e-6
5.643e+1, 3.317e-6
5.646e+1, 3.260e-6
5.649e+1, 3.161e-6
5.652e+1, 3.128e-6
5.655e+1, 3.137e-6
5.658e+1, 3.327e-6
5.661e+1, 3.635e-6
5.664e+1, 3.802e-6
5.667e+1, 3.816e-6
5.670e+1, 3.819e-6
5.673e+1, 3.818e-6
5.676e+1, 3.813e-6
5.679e+1, 3.732e-6
5.682e+1, 3.567e-6
5.685e+1, 3.608e-6
5.688e+1, 3.517e-6
5.691e+1, 3.414e-6
5.694e+1, 3.375e-6
5.697e+1, 3.363e-6
5.700e+1, 3.359e-6
5.703e+1, 3.257e-6
5.706e+1, 3.229e-6
5.709e+1, 3.202e-6
5.712e+1, 3.151e-6
5.715e+1, 3.112e-6
5.718e+1, 3.119e-6
5.721e+1, 3.107e-6
5.724e+1, 3.092e-6
5.727e+1, 3.056e-6
5.730e+1, 2.998e-6
5.733e+1, 3.001e-6
5.736e+1, 3.147e-6
5.739e+1, 3.461e-6
5.742e+1, 3.759e-6
5.745e+1, 3.761e-6
5.748e+1, 3.806e-6
5.751e+1, 3.884e-6
5.754e+1, 3.916e-6
5.757e+1, 3.920e-6
5.760e+1, 3.763e-6
5.763e+1, 3.553e-6
5.766e+1, 3.611e-6
5.769e+1, 3.576e-6
5.772e+1, 3.499e-6
5.775e+1, 3.460e-6
5.778e+1, 3.398e-6
5.781e+1, 3.366e-6
5.784e+1, 3.355e-6
5.787e+1, 3.331e-6
5.790e+1, 3.288e-6
5.793e+1, 3.204e-6
5.796e+1, 3.159e-6
5.799e+1, 3.150e-6
5.802e+1, 3.108e-6
5.805e+1, 3.062e-6
5.808e+1, 3.023e-6
5.811e+1, 3.006e-6
5.814e+1, 2.945e-6
5.817e+1, 2.947e-6
5.820e+1, 3.093e-6
5.823e+1, 3.390e-6
5.826e+1, 3.637e-6
5.829e+1, 3.708e-6
5.832e+1, 3.702e-6
5.835e+1, 3.752e-6
5.838e+1, 3.789e-6
5.841e+1, 3.747e-6
5.844e+1, 3.522e-6
5.847e+1, 3.450e-6
5.850e+1, 3.484e-6
5.853e+1, 3.471e-6
5.856e+1, 3.427e-6
5.859e+1, 3.338e-6
5.862e+1, 3.318e-6
5.865e+1, 3.324e-6
5.868e+1, 3.304e-6
5.871e+1, 3.224e-6
5.874e+1, 3.155e-6
5.877e+1, 3.152e-6
5.880e+1, 3.138e-6
5.883e+1, 3.102e-6
5.886e+1, 3.096e-6
5.889e+1, 3.127e-6
5.892e+1, 3.130e-6
5.895e+1, 3.106e-6
5.898e+1, 3.077e-6
5.901e+1, 3.129e-6
5.904e+1, 3.441e-6
5.907e+1, 3.732e-6
5.910e+1, 3.863e-6
5.913e+1, 3.845e-6
5.916e+1, 3.836e-6
5.919e+1, 3.795e-6
5.922e+1, 3.778e-6
5.925e+1, 3.713e-6
5.928e+1, 3.644e-6
5.931e+1, 3.683e-6
5.934e+1, 3.727e-6
5.937e+1, 3.701e-6
5.940e+1, 3.583e-6
5.943e+1, 3.519e-6
5.946e+1, 3.524e-6
5.949e+1, 3.446e-6
5.952e+1, 3.390e-6
5.955e+1, 3.404e-6
5.958e+1, 3.418e-6
5.961e+1, 3.398e-6
5.964e+1, 3.352e-6
5.967e+1, 3.313e-6
5.970e+1, 3.298e-6
5.973e+1, 3.239e-6
5.976e+1, 3.214e-6
5.979e+1, 3.228e-6
5.982e+1, 3.421e-6
5.985e+1, 3.774e-6
5.988e+1, 3.883e-6
5.991e+1, 3.913e-6
5.994e+1, 3.921e-6
5.997e+1, 3.925e-6
6.000e+1, 3.930e-6
6.003e+1, 3.862e-6
6.006e+1, 3.704e-6
6.009e+1, 3.710e-6
6.012e+1, 3.707e-6
6.015e+1, 3.669e-6
6.018e+1, 3.541e-6
6.021e+1, 3.460e-6
6.024e+1, 3.447e-6
6.027e+1, 3.406e-6
6.030e+1, 3.390e-6
6.033e+1, 3.389e-6
6.036e+1, 3.367e-6
6.039e+1, 3.337e-6
6.042e+1, 3.318e-6
6.045e+1, 3.270e-6
6.048e+1, 3.222e-6
6.051e+1, 3.175e-6
6.054e+1, 3.102e-6
6.057e+1, 3.095e-6
6.060e+1, 3.289e-6
6.063e+1, 3.690e-6
6.066e+1, 3.943e-6
6.069e+1, 3.947e-6
6.072e+1, 3.957e-6
6.075e+1, 3.972e-6
6.078e+1, 3.979e-6
6.081e+1, 3.972e-6
6.084e+1, 3.820e-6
6.087e+1, 3.737e-6
6.090e+1, 3.789e-6
6.093e+1, 3.784e-6
6.096e+1, 3.737e-6
6.099e+1, 3.660e-6
6.102e+1, 3.624e-6
6.105e+1, 3.523e-6
6.108e+1, 3.421e-6
6.111e+1, 3.401e-6
6.114e+1, 3.360e-6
6.117e+1, 3.346e-6
6.120e+1, 3.329e-6
6.123e+1, 3.313e-6
6.126e+1, 3.283e-6
6.129e+1, 3.217e-6
6.132e+1, 3.167e-6
6.135e+1, 3.140e-6
6.138e+1, 3.227e-6
6.141e+1, 3.641e-6
6.144e+1, 4.017e-6
6.147e+1, 4.144e-6
6.150e+1, 4.158e-6
6.153e+1, 4.132e-6
6.156e+1, 4.095e-6
6.159e+1, 4.098e-6
6.162e+1, 4.051e-6
6.165e+1, 3.930e-6
6.168e+1, 3.944e-6
6.171e+1, 3.949e-6
6.174e+1, 3.918e-6
6.177e+1, 3.813e-6
6.180e+1, 3.725e-6
6.183e+1, 3.667e-6
6.186e+1, 3.518e-6
6.189e+1, 3.467e-6
6.192e+1, 3.455e-6
6.195e+1, 3.443e-6
6.198e+1, 3.422e-6
6.201e+1, 3.376e-6
6.204e+1, 3.362e-6
6.207e+1, 3.332e-6
6.210e+1, 3.251e-6
6.213e+1, 3.197e-6
6.216e+1, 3.239e-6
6.219e+1, 3.539e-6
6.222e+1, 3.902e-6
6.225e+1, 4.102e-6
6.228e+1, 4.137e-6
6.231e+1, 4.135e-6
6.234e+1, 4.155e-6
6.237e+1, 4.162e-6
6.240e+1, 4.059e-6
6.243e+1, 3.905e-6
6.246e+1, 3.919e-6
6.249e+1, 3.908e-6
6.252e+1, 3.809e-6
6.255e+1, 3.768e-6
6.258e+1, 3.766e-6
6.261e+1, 3.694e-6
6.264e+1, 3.560e-6
6.267e+1, 3.457e-6
6.270e+1, 3.428e-6
6.273e+1, 3.408e-6
6.276e+1, 3.385e-6
6.279e+1, 3.380e-6
6.282e+1, 3.373e-6
6.285e+1, 3.333e-6
6.288e+1, 3.218e-6
6.291e+1, 3.166e-6
6.294e+1, 3.209e-6
6.297e+1, 3.537e-6
6.300e+1, 3.743e-6
6.303e+1, 3.829e-6
6.306e+1, 3.837e-6
6.309e+1, 3.565e-6
6.312e+1, 3.188e-6
6.315e+1, 2.511e-6
6.318e+1, 1.544e-6
6.321e+1, 6.120e-7
6.324e+1, 1.585e-7
6.327e+1, 6.152e-8
6.330e+1, 8.510e-9
6.333e+1, 9.530e-9
6.336e+1, 9.903e-9
6.339e+1, 7.715e-9
6.342e+1, 5.155e-9
6.345e+1, 7.617e-9
6.348e+1, 7.293e-9
6.351e+1, 6.930e-9
6.354e+1, 7.156e-9
6.357e+1, 5.184e-9
6.360e+1, 6.803e-9
6.363e+1, 6.989e-9
6.366e+1, 4.379e-9
6.369e+1, 6.724e-9
6.372e+1, 5.488e-9
6.375e+1, 6.813e-9
6.378e+1, 5.262e-9
6.381e+1, 6.567e-9
6.384e+1, 6.744e-9
6.387e+1, 3.850e-9
6.390e+1, 6.538e-9
6.393e+1, 6.430e-9
6.396e+1, 5.851e-9
6.399e+1, 6.714e-9
6.402e+1, 6.440e-9
6.405e+1, 6.450e-9
6.408e+1, 3.752e-9
6.411e+1, 6.656e-9
6.414e+1, 6.783e-9
6.417e+1, 5.488e-9
6.420e+1, 6.754e-9
6.423e+1, 6.822e-9
6.426e+1, 6.979e-9
6.429e+1, 5.959e-9
6.432e+1, 7.264e-9
6.435e+1, 7.185e-9
6.438e+1, 5.125e-9
6.441e+1, 6.685e-9
6.444e+1, 6.665e-9
6.447e+1, 6.528e-9
6.450e+1, 6.381e-9
6.453e+1, 6.430e-9
6.456e+1, 6.440e-9
6.459e+1, 5.105e-9
6.462e+1, 6.479e-9
6.465e+1, 6.459e-9
6.468e+1, 5.194e-9
6.471e+1, 6.499e-9
6.474e+1, 6.410e-9
6.477e+1, 6.518e-9
6.480e+1, 5.243e-9
6.483e+1, 6.557e-9
6.486e+1, 6.459e-9
6.489e+1, 3.850e-9
6.492e+1, 6.499e-9
6.495e+1, 6.459e-9
6.498e+1, 6.332e-9
6.501e+1, 5.292e-9
6.504e+1, 6.450e-9
6.507e+1, 6.557e-9
6.510e+1, 4.379e-9
6.513e+1, 6.528e-9
6.516e+1, 2.152e-9
6.519e+1, 2.358e-9
6.522e+1, 4.723e-9
6.525e+1, 6.548e-9
6.528e+1, 6.410e-9
6.531e+1, 4.909e-9
6.534e+1, 6.518e-9
6.537e+1, 6.567e-9
6.540e+1, 5.812e-9
6.543e+1, 6.528e-9
6.546e+1, 6.391e-9
6.549e+1, 6.508e-9
